ax,	ay,	az,	ox,	oy,	oz,	dz,	dv,	t
-2.7594e-01,	-4.2701e-01,	1.0005e+01,	-1.7005e-03,	8.1352e-04,	4.2122e-03,	0.0000e+00,	0,	1460043937926708047,	0
-3.3556e-01,	-3.5161e-01,	1.0037e+01,	-7.7709e-03,	-5.4504e-03,	3.5043e-03,	0.0000e+00,	0,	1460043937929063530,	2355483
-3.2458e-01,	-3.4044e-01,	1.0044e+01,	-6.2660e-03,	-5.3807e-03,	3.2029e-03,	0.0000e+00,	0,	1460043937931511804,	4803757
-3.1708e-01,	-3.5343e-01,	1.0054e+01,	-4.8958e-03,	-4.8728e-03,	3.3934e-03,	0.0000e+00,	0,	1460043937934057661,	7349614
-3.2228e-01,	-3.8055e-01,	1.0044e+01,	-4.6671e-03,	-4.3908e-03,	3.8651e-03,	0.0000e+00,	0,	1460043937936554101,	9846054
-3.3317e-01,	-3.8923e-01,	1.0027e+01,	-5.0110e-03,	-4.4117e-03,	3.6033e-03,	0.0000e+00,	0,	1460043937939038417,	12330370
-3.2676e-01,	-3.6786e-01,	1.0022e+01,	-4.9493e-03,	-4.6601e-03,	2.9859e-03,	0.0000e+00,	0,	1460043937941564649,	14856602
-3.1484e-01,	-3.4611e-01,	1.0027e+01,	-4.5087e-03,	-4.9121e-03,	3.3409e-03,	0.0000e+00,	0,	1460043937944062173,	17354126
-3.1601e-01,	-3.4005e-01,	1.0036e+01,	-4.4067e-03,	-5.1983e-03,	4.2576e-03,	0.0000e+00,	0,	1460043937946510239,	19802192
-3.2366e-01,	-3.4310e-01,	1.0029e+01,	-4.4152e-03,	-5.6061e-03,	4.0290e-03,	0.0000e+00,	0,	1460043937949064804,	22356757
-3.2873e-01,	-3.5012e-01,	1.0011e+01,	-3.9276e-03,	-5.8158e-03,	2.3356e-03,	0.0000e+00,	0,	1460043937951564869,	24856822
-3.2239e-01,	-3.5276e-01,	9.9990e+00,	-3.6530e-03,	-5.9163e-03,	2.2293e-04,	0.0000e+00,	0,	1460043937954027935,	27319888
-3.1597e-01,	-3.5002e-01,	9.9987e+00,	-3.8900e-03,	-6.6719e-03,	-9.7766e-04,	0.0000e+00,	0,	1460043937956579167,	29871120
-3.1967e-01,	-3.5452e-01,	1.0022e+01,	-3.9468e-03,	-7.2074e-03,	-5.5684e-04,	0.0000e+00,	0,	1460043937959102691,	32394644
-3.2230e-01,	-3.6708e-01,	1.0049e+01,	-4.1063e-03,	-6.5424e-03,	1.8679e-03,	0.0000e+00,	0,	1460043937961565048,	34857001
-3.1689e-01,	-3.7033e-01,	1.0054e+01,	-4.8784e-03,	-5.8896e-03,	3.5326e-03,	0.0000e+00,	0,	1460043937964060530,	37352483
-3.1494e-01,	-3.6630e-01,	1.0047e+01,	-5.8525e-03,	-5.7859e-03,	2.7101e-03,	0.0000e+00,	0,	1460043937966535971,	39827924
-3.2523e-01,	-3.6370e-01,	1.0037e+01,	-6.1217e-03,	-5.6511e-03,	1.7065e-03,	1.3477e-01,	1,	1460043937969027911,	42319864
-3.3095e-01,	-3.6531e-01,	1.0033e+01,	-5.5761e-03,	-5.3867e-03,	1.9188e-03,	0.0000e+00,	0,	1460043937971550477,	44842430
-3.2881e-01,	-3.6466e-01,	1.0047e+01,	-5.4154e-03,	-4.6964e-03,	2.4903e-03,	0.0000e+00,	0,	1460043937974022876,	47314829
-3.2199e-01,	-3.6757e-01,	1.0057e+01,	-6.0690e-03,	-4.2635e-03,	3.7043e-03,	0.0000e+00,	0,	1460043937976525858,	49817811
-3.2487e-01,	-3.7226e-01,	1.0054e+01,	-6.3133e-03,	-5.0586e-03,	4.8697e-03,	1.3473e-01,	1,	1460043937979059382,	52351335
-3.3886e-01,	-3.6728e-01,	1.0042e+01,	-5.8770e-03,	-6.6166e-03,	4.5150e-03,	0.0000e+00,	0,	1460043937981536906,	54828859
-3.4017e-01,	-3.5756e-01,	1.0026e+01,	-5.8741e-03,	-7.5070e-03,	3.3526e-03,	0.0000e+00,	0,	1460043937984047263,	57339216
-3.3199e-01,	-3.5057e-01,	1.0029e+01,	-6.5831e-03,	-7.0014e-03,	2.2348e-03,	0.0000e+00,	0,	1460043937986554828,	59846781
-3.2863e-01,	-3.4716e-01,	1.0052e+01,	-7.5579e-03,	-5.4566e-03,	2.4260e-03,	0.0000e+00,	0,	1460043937989031144,	62323097
-3.3593e-01,	-3.5168e-01,	1.0057e+01,	-7.2615e-03,	-4.7433e-03,	3.4429e-03,	0.0000e+00,	0,	1460043937991524626,	64816579
-3.4631e-01,	-3.6245e-01,	1.0023e+01,	-5.9387e-03,	-4.9766e-03,	4.8702e-03,	0.0000e+00,	0,	1460043937994027816,	67319769
-3.4628e-01,	-3.6321e-01,	9.9954e+00,	-4.0636e-03,	-5.6288e-03,	5.9559e-03,	0.0000e+00,	0,	1460043937996525799,	69817752
-3.3955e-01,	-3.5874e-01,	1.0014e+01,	-2.9869e-03,	-6.9150e-03,	5.4199e-03,	0.0000e+00,	0,	1460043937999027364,	72319317
-3.3005e-01,	-3.6427e-01,	1.0053e+01,	-2.8009e-03,	-8.9119e-03,	4.3064e-03,	0.0000e+00,	0,	1460043938001536513,	74828466
-3.2448e-01,	-3.7582e-01,	1.0075e+01,	-2.8811e-03,	-9.8303e-03,	3.3291e-03,	0.0000e+00,	0,	1460043938004029120,	77321073
-3.2307e-01,	-3.7901e-01,	1.0075e+01,	-3.4998e-03,	-7.2160e-03,	2.2577e-03,	0.0000e+00,	0,	1460043938006512311,	79804264
-3.2686e-01,	-3.7415e-01,	1.0057e+01,	-4.2364e-03,	-2.5351e-03,	1.9589e-03,	0.0000e+00,	0,	1460043938009037918,	82329871
-3.2654e-01,	-3.6919e-01,	1.0031e+01,	-4.7232e-03,	-1.0904e-03,	2.4353e-03,	0.0000e+00,	0,	1460043938011536608,	84828561
-3.1959e-01,	-3.6571e-01,	1.0016e+01,	-5.3836e-03,	-3.8578e-03,	3.6467e-03,	0.0000e+00,	0,	1460043938014016382,	87308335
-3.1492e-01,	-3.6500e-01,	1.0025e+01,	-5.7339e-03,	-6.8339e-03,	4.8791e-03,	0.0000e+00,	0,	1460043938016517031,	89808984
-3.1314e-01,	-3.7208e-01,	1.0036e+01,	-5.9550e-03,	-7.3743e-03,	5.2752e-03,	0.0000e+00,	0,	1460043938019039721,	92331674
-3.1281e-01,	-3.7908e-01,	1.0043e+01,	-6.8430e-03,	-6.4676e-03,	4.1193e-03,	0.0000e+00,	0,	1460043938021531079,	94823032
-3.1580e-01,	-3.7845e-01,	1.0049e+01,	-7.2658e-03,	-4.9618e-03,	3.2293e-03,	0.0000e+00,	0,	1460043938024011394,	97303347
-3.2090e-01,	-3.7354e-01,	1.0063e+01,	-6.1556e-03,	-4.5927e-03,	2.7465e-03,	0.0000e+00,	0,	1460043938026530376,	99822329
-3.1685e-01,	-3.6996e-01,	1.0068e+01,	-5.1207e-03,	-5.7830e-03,	1.9557e-03,	0.0000e+00,	0,	1460043938029030192,	102322145
-3.1073e-01,	-3.6904e-01,	1.0055e+01,	-4.7213e-03,	-6.6490e-03,	9.1558e-04,	0.0000e+00,	0,	1460043938031519466,	104811419
-3.1611e-01,	-3.7030e-01,	1.0046e+01,	-5.2373e-03,	-6.2948e-03,	1.0219e-03,	0.0000e+00,	0,	1460043938034032989,	107324942
-3.3237e-01,	-3.6671e-01,	1.0060e+01,	-6.0743e-03,	-5.4956e-03,	2.2334e-03,	0.0000e+00,	0,	1460043938036541930,	109833883
-3.4031e-01,	-3.6495e-01,	1.0071e+01,	-7.3058e-03,	-4.9552e-03,	3.4287e-03,	0.0000e+00,	0,	1460043938039019579,	112311532
-3.3046e-01,	-3.6587e-01,	1.0058e+01,	-8.1886e-03,	-4.8140e-03,	4.8219e-03,	0.0000e+00,	0,	1460043938041546227,	114838180
-3.1946e-01,	-3.6856e-01,	1.0041e+01,	-7.7781e-03,	-4.9994e-03,	4.8851e-03,	0.0000e+00,	0,	1460043938044048876,	117340829
-3.2029e-01,	-3.6957e-01,	1.0039e+01,	-5.7503e-03,	-5.3415e-03,	3.7864e-03,	0.0000e+00,	0,	1460043938046523942,	119815895
-3.2780e-01,	-3.5876e-01,	1.0052e+01,	-3.3182e-03,	-5.2035e-03,	3.6075e-03,	0.0000e+00,	0,	1460043938049042757,	122334710
-3.3691e-01,	-3.4698e-01,	1.0056e+01,	-3.3419e-03,	-4.7289e-03,	4.6001e-03,	0.0000e+00,	0,	1460043938051562906,	124854859
-3.3853e-01,	-3.4589e-01,	1.0051e+01,	-5.5908e-03,	-4.7196e-03,	5.2224e-03,	0.0000e+00,	0,	1460043938054028805,	127320758
-3.3122e-01,	-3.5685e-01,	1.0054e+01,	-7.3034e-03,	-5.4744e-03,	5.8579e-03,	0.0000e+00,	0,	1460043938056548162,	129840115
-3.2161e-01,	-3.7161e-01,	1.0055e+01,	-7.1274e-03,	-6.1364e-03,	5.7959e-03,	0.0000e+00,	0,	1460043938059052978,	132344931
-3.2203e-01,	-3.6861e-01,	1.0059e+01,	-6.0339e-03,	-5.8813e-03,	4.0324e-03,	1.3474e-01,	1,	1460043938061540835,	134832788
-3.3289e-01,	-3.5361e-01,	1.0061e+01,	-5.0635e-03,	-4.5268e-03,	2.1833e-03,	0.0000e+00,	0,	1460043938064053275,	137345228
-3.3332e-01,	-3.3827e-01,	1.0059e+01,	-4.7609e-03,	-3.5590e-03,	1.7067e-03,	0.0000e+00,	0,	1460043938066544508,	139836461
-3.2447e-01,	-3.2980e-01,	1.0061e+01,	-5.1871e-03,	-3.8138e-03,	1.9042e-03,	0.0000e+00,	0,	1460043938069039365,	142331318
-3.2233e-01,	-3.3546e-01,	1.0055e+01,	-6.1297e-03,	-5.1595e-03,	1.7518e-03,	1.3473e-01,	1,	1460043938071568430,	144860383
-3.2891e-01,	-3.5118e-01,	1.0044e+01,	-6.7913e-03,	-6.3652e-03,	2.2371e-03,	0.0000e+00,	0,	1460043938074038204,	147330157
-3.3125e-01,	-3.6386e-01,	1.0036e+01,	-5.9948e-03,	-6.8529e-03,	3.5774e-03,	0.0000e+00,	0,	1460043938076543311,	149835264
-3.2313e-01,	-3.6220e-01,	1.0034e+01,	-4.5538e-03,	-6.3011e-03,	4.8198e-03,	0.0000e+00,	0,	1460043938079059418,	152351371
-3.2286e-01,	-3.5397e-01,	1.0034e+01,	-4.3646e-03,	-5.0280e-03,	5.2679e-03,	0.0000e+00,	0,	1460043938081547484,	154839437
-3.3274e-01,	-3.5237e-01,	1.0038e+01,	-5.2956e-03,	-5.1327e-03,	4.6547e-03,	0.0000e+00,	0,	1460043938084049924,	157341877
-3.4356e-01,	-3.5972e-01,	1.0036e+01,	-6.2599e-03,	-6.3225e-03,	3.5010e-03,	0.0000e+00,	0,	1460043938086561365,	159853318
-3.5005e-01,	-3.6814e-01,	1.0033e+01,	-6.3714e-03,	-6.8017e-03,	1.9596e-03,	0.0000e+00,	0,	1460043938089053055,	162345008
-3.4420e-01,	-3.7655e-01,	1.0043e+01,	-5.3553e-03,	-5.6726e-03,	1.2952e-03,	0.0000e+00,	0,	1460043938091557621,	164849574
-3.3059e-01,	-3.7395e-01,	1.0048e+01,	-4.7054e-03,	-4.5797e-03,	1.8747e-03,	0.0000e+00,	0,	1460043938094069770,	167361723
-3.2409e-01,	-3.6813e-01,	1.0032e+01,	-5.7185e-03,	-4.7569e-03,	4.0604e-03,	0.0000e+00,	0,	1460043938096557543,	169849496
-3.2048e-01,	-3.6884e-01,	1.0014e+01,	-5.7648e-03,	-5.6459e-03,	5.3216e-03,	0.0000e+00,	0,	1460043938099039651,	172331604
-3.1761e-01,	-3.6244e-01,	1.0025e+01,	-4.1156e-03,	-6.9537e-03,	4.1978e-03,	0.0000e+00,	0,	1460043938101572424,	174864377
-3.2349e-01,	-3.4579e-01,	1.0040e+01,	-3.5205e-03,	-7.8410e-03,	2.7243e-03,	0.0000e+00,	0,	1460043938104071407,	177363360
-3.3402e-01,	-3.4451e-01,	1.0037e+01,	-4.2863e-03,	-7.5461e-03,	2.3358e-03,	0.0000e+00,	0,	1460043938106513264,	179805217
-3.3668e-01,	-3.5795e-01,	1.0023e+01,	-5.2683e-03,	-7.0289e-03,	3.4122e-03,	0.0000e+00,	0,	1460043938109049621,	182341574
-3.3885e-01,	-3.7051e-01,	1.0021e+01,	-5.9360e-03,	-6.4325e-03,	5.2416e-03,	0.0000e+00,	0,	1460043938111572478,	184864431
-3.3743e-01,	-3.6581e-01,	1.0025e+01,	-5.9519e-03,	-6.4367e-03,	6.7308e-03,	0.0000e+00,	0,	1460043938114052294,	187344247
-3.3677e-01,	-3.4074e-01,	1.0023e+01,	-6.2233e-03,	-7.3049e-03,	6.3040e-03,	0.0000e+00,	0,	1460043938116519818,	189811771
-3.3688e-01,	-3.2334e-01,	1.0007e+01,	-6.4857e-03,	-7.8225e-03,	4.5578e-03,	0.0000e+00,	0,	1460043938119061966,	192353919
-3.3277e-01,	-3.3551e-01,	9.9981e+00,	-5.6369e-03,	-8.2891e-03,	3.0725e-03,	0.0000e+00,	0,	1460043938121524990,	194816943
-3.2328e-01,	-3.5823e-01,	1.0008e+01,	-5.1258e-03,	-8.2709e-03,	2.7427e-03,	0.0000e+00,	0,	1460043938124020973,	197312926
-3.1891e-01,	-3.7127e-01,	1.0032e+01,	-5.5433e-03,	-7.1339e-03,	3.6439e-03,	0.0000e+00,	0,	1460043938126562413,	199854366
-3.2500e-01,	-3.7232e-01,	1.0062e+01,	-6.1465e-03,	-6.2051e-03,	3.5526e-03,	0.0000e+00,	0,	1460043938129030770,	202322723
-3.3417e-01,	-3.6501e-01,	1.0080e+01,	-6.5773e-03,	-5.9096e-03,	2.4613e-03,	0.0000e+00,	0,	1460043938131514336,	204806289
-3.3875e-01,	-3.5391e-01,	1.0074e+01,	-6.5330e-03,	-5.2821e-03,	1.5081e-03,	0.0000e+00,	0,	1460043938134068484,	207360437
-3.3726e-01,	-3.5433e-01,	1.0036e+01,	-6.0690e-03,	-5.6322e-03,	1.3874e-03,	0.0000e+00,	0,	1460043938136564675,	209856628
-3.2763e-01,	-3.6161e-01,	1.0005e+01,	-5.1314e-03,	-6.1746e-03,	1.4991e-03,	0.0000e+00,	0,	1460043938139013366,	212305319
-3.1539e-01,	-3.6611e-01,	1.0012e+01,	-4.8562e-03,	-5.7547e-03,	1.5858e-03,	0.0000e+00,	0,	1460043938141536556,	214828509
-3.1297e-01,	-3.7382e-01,	1.0027e+01,	-5.5837e-03,	-5.1296e-03,	2.2225e-03,	1.3480e-01,	1,	1460043938144072080,	217364033
-3.1781e-01,	-3.7874e-01,	1.0029e+01,	-5.7753e-03,	-5.8586e-03,	3.0907e-03,	0.0000e+00,	0,	1460043938146513479,	219805432
-3.2754e-01,	-3.6298e-01,	1.0026e+01,	-5.2528e-03,	-6.3961e-03,	4.3221e-03,	0.0000e+00,	0,	1460043938149036669,	222328622
-3.3862e-01,	-3.3952e-01,	1.0019e+01,	-4.9811e-03,	-5.9012e-03,	5.0304e-03,	0.0000e+00,	0,	1460043938151535485,	224827438
-3.4548e-01,	-3.2638e-01,	1.0027e+01,	-5.2152e-03,	-5.3385e-03,	4.5909e-03,	1.3479e-01,	1,	1460043938154022050,	227314003
-3.4360e-01,	-3.3308e-01,	1.0029e+01,	-5.6461e-03,	-4.9794e-03,	3.3203e-03,	0.0000e+00,	0,	1460043938156535741,	229827694
-3.3097e-01,	-3.5154e-01,	1.0018e+01,	-6.1717e-03,	-5.1708e-03,	2.7436e-03,	0.0000e+00,	0,	1460043938159020265,	232312218
-3.2992e-01,	-3.5970e-01,	1.0013e+01,	-6.2567e-03,	-6.4414e-03,	2.8404e-03,	0.0000e+00,	0,	1460043938161513830,	234805783
-3.3569e-01,	-3.5482e-01,	1.0011e+01,	-6.1933e-03,	-8.3309e-03,	3.6139e-03,	1.3484e-01,	1,	1460043938164044645,	237336598
-3.3824e-01,	-3.4571e-01,	1.0016e+01,	-5.6746e-03,	-8.9050e-03,	4.8277e-03,	0.0000e+00,	0,	1460043938166514836,	239806789
-3.2962e-01,	-3.4128e-01,	1.0026e+01,	-4.5683e-03,	-7.7776e-03,	5.1021e-03,	0.0000e+00,	0,	1460043938169016318,	242308271
-3.1905e-01,	-3.4572e-01,	1.0038e+01,	-4.5742e-03,	-6.2753e-03,	3.4912e-03,	0.0000e+00,	0,	1460043938171538384,	244830337
-3.2137e-01,	-3.4972e-01,	1.0042e+01,	-6.6893e-03,	-5.0551e-03,	2.3522e-03,	0.0000e+00,	0,	1460043938174022158,	247314111
-3.3622e-01,	-3.4661e-01,	1.0039e+01,	-8.0129e-03,	-5.3269e-03,	1.7031e-03,	0.0000e+00,	0,	1460043938176524181,	249816134
-3.3710e-01,	-3.4478e-01,	1.0035e+01,	-7.1469e-03,	-6.5825e-03,	4.7051e-04,	0.0000e+00,	0,	1460043938179031455,	252323408
-3.2299e-01,	-3.5459e-01,	1.0033e+01,	-5.6301e-03,	-7.7372e-03,	6.7796e-04,	0.0000e+00,	0,	1460043938181523646,	254815599
-3.2129e-01,	-3.6349e-01,	1.0040e+01,	-5.3251e-03,	-7.4787e-03,	2.7831e-03,	0.0000e+00,	0,	1460043938184032086,	257324039
-3.2960e-01,	-3.5659e-01,	1.0043e+01,	-6.0702e-03,	-6.8484e-03,	5.2536e-03,	0.0000e+00,	0,	1460043938186539652,	259831605
-3.3883e-01,	-3.4786e-01,	1.0040e+01,	-6.5278e-03,	-6.2131e-03,	5.8660e-03,	0.0000e+00,	0,	1460043938189029217,	262321170
-3.4366e-01,	-3.5392e-01,	1.0041e+01,	-5.7604e-03,	-6.2424e-03,	4.3543e-03,	0.0000e+00,	0,	1460043938191518366,	264810319
-3.4250e-01,	-3.6375e-01,	1.0041e+01,	-4.6669e-03,	-6.3614e-03,	3.2686e-03,	0.0000e+00,	0,	1460043938194047640,	267339593
-3.3236e-01,	-3.6140e-01,	1.0040e+01,	-4.3754e-03,	-6.0633e-03,	3.4808e-03,	0.0000e+00,	0,	1460043938196541247,	269833200
-3.2302e-01,	-3.4893e-01,	1.0033e+01,	-4.6728e-03,	-5.5759e-03,	4.4843e-03,	0.0000e+00,	0,	1460043938199015854,	272307807
-3.2240e-01,	-3.3863e-01,	1.0025e+01,	-5.4618e-03,	-6.0072e-03,	5.4830e-03,	0.0000e+00,	0,	1460043938201526503,	274818456
-3.2401e-01,	-3.4073e-01,	1.0025e+01,	-5.9516e-03,	-5.5563e-03,	5.9489e-03,	0.0000e+00,	0,	1460043938204042194,	277334147
-3.3147e-01,	-3.5116e-01,	1.0032e+01,	-7.0638e-03,	-4.0160e-03,	4.6285e-03,	0.0000e+00,	0,	1460043938206527884,	279819837
-3.3833e-01,	-3.6169e-01,	1.0034e+01,	-8.2815e-03,	-3.0644e-03,	3.6029e-03,	0.0000e+00,	0,	1460043938209021325,	282313278
-3.3002e-01,	-3.6748e-01,	1.0042e+01,	-8.2493e-03,	-4.1788e-03,	3.7277e-03,	0.0000e+00,	0,	1460043938211532640,	284824593
-3.1610e-01,	-3.6517e-01,	1.0064e+01,	-8.0208e-03,	-6.2053e-03,	5.2955e-03,	0.0000e+00,	0,	1460043938214029706,	287321659
-3.1418e-01,	-3.6000e-01,	1.0072e+01,	-6.8029e-03,	-7.4708e-03,	6.9941e-03,	0.0000e+00,	0,	1460043938216526730,	289818683
-3.1941e-01,	-3.5888e-01,	1.0057e+01,	-5.1501e-03,	-7.3711e-03,	7.7662e-03,	0.0000e+00,	0,	1460043938219037670,	292329623
-3.1416e-01,	-3.5659e-01,	1.0044e+01,	-4.3790e-03,	-6.4994e-03,	6.2307e-03,	0.0000e+00,	0,	1460043938221541485,	294833438
-3.0453e-01,	-3.5324e-01,	1.0043e+01,	-4.5558e-03,	-5.7016e-03,	3.3893e-03,	0.0000e+00,	0,	1460043938224023843,	297315796
-3.0182e-01,	-3.5554e-01,	1.0044e+01,	-5.1180e-03,	-5.4463e-03,	2.0852e-03,	0.0000e+00,	0,	1460043938226551616,	299843569
-3.0876e-01,	-3.6414e-01,	1.0051e+01,	-5.4885e-03,	-5.1009e-03,	1.6282e-03,	0.0000e+00,	0,	1460043938229053682,	302345635
-3.2157e-01,	-3.7920e-01,	1.0047e+01,	-5.4461e-03,	-5.0688e-03,	1.3101e-03,	0.0000e+00,	0,	1460043938231530289,	304822242
-3.2942e-01,	-3.8833e-01,	1.0033e+01,	-5.0244e-03,	-5.3482e-03,	1.4302e-03,	0.0000e+00,	0,	1460043938234048146,	307340099
-3.3131e-01,	-3.9406e-01,	1.0027e+01,	-4.7260e-03,	-5.6819e-03,	2.1825e-03,	1.3481e-01,	1,	1460043938236566295,	309858248
-3.2915e-01,	-3.9377e-01,	1.0033e+01,	-4.5197e-03,	-6.0574e-03,	2.4638e-03,	0.0000e+00,	0,	1460043938239035152,	312327105
-3.2908e-01,	-3.7794e-01,	1.0041e+01,	-4.6691e-03,	-5.8929e-03,	1.6426e-03,	0.0000e+00,	0,	1460043938241554509,	314846462
-3.3074e-01,	-3.5209e-01,	1.0041e+01,	-4.6827e-03,	-6.2733e-03,	1.5891e-03,	0.0000e+00,	0,	1460043938244064825,	317356778
-3.2974e-01,	-3.4120e-01,	1.0038e+01,	-4.9582e-03,	-6.0778e-03,	2.9467e-03,	1.3481e-01,	1,	1460043938246548515,	319840468
-3.2626e-01,	-3.4536e-01,	1.0032e+01,	-4.7137e-03,	-5.9085e-03,	2.6734e-03,	0.0000e+00,	0,	1460043938249057289,	322349242
-3.2816e-01,	-3.5112e-01,	1.0018e+01,	-3.6433e-03,	-5.7576e-03,	1.1289e-03,	0.0000e+00,	0,	1460043938251564146,	324856099
-3.3599e-01,	-3.5143e-01,	1.0023e+01,	-3.3548e-03,	-5.5371e-03,	5.6261e-04,	0.0000e+00,	0,	1460043938254043004,	327334957
-3.3751e-01,	-3.5076e-01,	1.0049e+01,	-4.7956e-03,	-6.1704e-03,	1.6210e-03,	1.3480e-01,	1,	1460043938256567402,	329859355
-3.3183e-01,	-3.5478e-01,	1.0081e+01,	-6.4463e-03,	-7.2565e-03,	4.2607e-03,	0.0000e+00,	0,	1460043938259048801,	332340754
-3.2463e-01,	-3.6465e-01,	1.0090e+01,	-6.0687e-03,	-7.6750e-03,	5.2891e-03,	0.0000e+00,	0,	1460043938261542492,	334834445
-3.1756e-01,	-3.6926e-01,	1.0079e+01,	-3.4849e-03,	-6.8626e-03,	3.6252e-03,	0.0000e+00,	0,	1460043938264060390,	337352343
-3.0872e-01,	-3.5831e-01,	1.0064e+01,	-1.9203e-03,	-5.6389e-03,	2.0974e-03,	0.0000e+00,	0,	1460043938266551331,	339843284
-2.9916e-01,	-3.5052e-01,	1.0058e+01,	-3.0725e-03,	-5.8635e-03,	3.0620e-03,	0.0000e+00,	0,	1460043938269051563,	342343516
-2.9619e-01,	-3.5664e-01,	1.0063e+01,	-5.6087e-03,	-6.3659e-03,	4.3057e-03,	0.0000e+00,	0,	1460043938271564420,	344856373
-3.0443e-01,	-3.6314e-01,	1.0066e+01,	-7.0395e-03,	-6.5583e-03,	4.5447e-03,	0.0000e+00,	0,	1460043938274043653,	347335606
-3.1334e-01,	-3.6398e-01,	1.0044e+01,	-7.2465e-03,	-6.4261e-03,	4.1809e-03,	0.0000e+00,	0,	1460043938276560718,	349852671
-3.1982e-01,	-3.5937e-01,	1.0015e+01,	-6.5913e-03,	-5.8620e-03,	3.0620e-03,	0.0000e+00,	0,	1460043938279073700,	352365653
-3.3453e-01,	-3.5077e-01,	1.0004e+01,	-5.2174e-03,	-4.9844e-03,	1.9557e-03,	0.0000e+00,	0,	1460043938281553266,	354845219
-3.4693e-01,	-3.4609e-01,	1.0019e+01,	-3.7519e-03,	-4.8543e-03,	1.4174e-03,	0.0000e+00,	0,	1460043938284045998,	357337951
-3.5449e-01,	-3.4766e-01,	1.0034e+01,	-3.6224e-03,	-5.6529e-03,	1.4830e-03,	0.0000e+00,	0,	1460043938286581230,	359873183
-3.5632e-01,	-3.5158e-01,	1.0033e+01,	-4.7408e-03,	-6.0798e-03,	2.1604e-03,	0.0000e+00,	0,	1460043938289069129,	362361082
-3.5318e-01,	-3.5933e-01,	1.0020e+01,	-5.4556e-03,	-6.4060e-03,	3.1061e-03,	0.0000e+00,	0,	1460043938291518111,	364810064
-3.4322e-01,	-3.7217e-01,	1.0007e+01,	-5.2169e-03,	-7.3219e-03,	4.1871e-03,	0.0000e+00,	0,	1460043938294059302,	367351255
-3.3426e-01,	-3.7709e-01,	1.0002e+01,	-5.3359e-03,	-8.0403e-03,	4.3633e-03,	0.0000e+00,	0,	1460043938296569867,	369861820
-3.3337e-01,	-3.6197e-01,	1.0009e+01,	-5.9596e-03,	-7.7289e-03,	2.9324e-03,	0.0000e+00,	0,	1460043938299024266,	372316219
-3.3500e-01,	-3.4813e-01,	1.0023e+01,	-5.8308e-03,	-6.9749e-03,	2.2451e-03,	0.0000e+00,	0,	1460043938301555540,	374847493
-3.3595e-01,	-3.4652e-01,	1.0044e+01,	-5.0694e-03,	-6.9724e-03,	2.3634e-03,	0.0000e+00,	0,	1460043938304065689,	377357642
-3.3024e-01,	-3.5635e-01,	1.0049e+01,	-4.7752e-03,	-7.7181e-03,	2.6760e-03,	0.0000e+00,	0,	1460043938306523213,	379815166
-3.2168e-01,	-3.6044e-01,	1.0031e+01,	-4.7985e-03,	-7.9836e-03,	2.1342e-03,	0.0000e+00,	0,	1460043938309030820,	382322773
-3.2279e-01,	-3.4919e-01,	1.0018e+01,	-4.2909e-03,	-7.6797e-03,	1.2747e-03,	0.0000e+00,	0,	1460043938311567010,	384858963
-3.3065e-01,	-3.3962e-01,	1.0031e+01,	-4.2926e-03,	-6.7218e-03,	3.2681e-04,	0.0000e+00,	0,	1460043938314027909,	387319862
-3.2486e-01,	-3.3556e-01,	1.0043e+01,	-4.8542e-03,	-5.1316e-03,	1.5695e-04,	0.0000e+00,	0,	1460043938316518308,	389810261
-3.1339e-01,	-3.4020e-01,	1.0037e+01,	-5.3404e-03,	-4.7699e-03,	1.4651e-03,	0.0000e+00,	0,	1460043938319074623,	392366576
-3.1770e-01,	-3.5197e-01,	1.0033e+01,	-5.8137e-03,	-5.6762e-03,	3.3355e-03,	0.0000e+00,	0,	1460043938321535939,	394827892
-3.3287e-01,	-3.5593e-01,	1.0041e+01,	-5.8716e-03,	-6.0500e-03,	4.9275e-03,	0.0000e+00,	0,	1460043938324018130,	397310083
-3.3672e-01,	-3.4869e-01,	1.0052e+01,	-5.6405e-03,	-5.3776e-03,	4.8956e-03,	0.0000e+00,	0,	1460043938326539862,	399831815
-3.1958e-01,	-3.4147e-01,	1.0059e+01,	-5.4087e-03,	-4.2070e-03,	3.5944e-03,	1.3474e-01,	1,	1460043938329075885,	402367838
-3.0533e-01,	-3.4332e-01,	1.0062e+01,	-4.6619e-03,	-4.1245e-03,	2.4955e-03,	0.0000e+00,	0,	1460043938331516868,	404808821
-3.1343e-01,	-3.5102e-01,	1.0052e+01,	-4.8076e-03,	-5.1666e-03,	2.5117e-03,	0.0000e+00,	0,	1460043938334040266,	407332219
-3.2891e-01,	-3.5809e-01,	1.0045e+01,	-5.3040e-03,	-5.5824e-03,	2.7093e-03,	0.0000e+00,	0,	1460043938336544957,	409836910
-3.3854e-01,	-3.6259e-01,	1.0045e+01,	-5.8965e-03,	-4.8445e-03,	2.4650e-03,	1.3476e-01,	1,	1460043938339026606,	412318559
-3.3536e-01,	-3.6647e-01,	1.0046e+01,	-6.2106e-03,	-4.6047e-03,	3.1629e-03,	0.0000e+00,	0,	1460043938341540963,	414832916
-3.3099e-01,	-3.6743e-01,	1.0037e+01,	-5.2029e-03,	-5.2098e-03,	4.1875e-03,	0.0000e+00,	0,	1460043938344037528,	417329481
-3.3694e-01,	-3.5911e-01,	1.0037e+01,	-4.2745e-03,	-5.7451e-03,	4.1737e-03,	0.0000e+00,	0,	1460043938346518761,	419810714
-3.3926e-01,	-3.5168e-01,	1.0048e+01,	-4.4701e-03,	-5.6894e-03,	3.3766e-03,	0.0000e+00,	0,	1460043938349049659,	422341612
-3.3364e-01,	-3.4820e-01,	1.0053e+01,	-5.5761e-03,	-6.0137e-03,	2.9209e-03,	0.0000e+00,	0,	1460043938351539183,	424831136
-3.3142e-01,	-3.4270e-01,	1.0028e+01,	-5.7895e-03,	-7.2236e-03,	3.0840e-03,	0.0000e+00,	0,	1460043938354018624,	427310577
-3.3442e-01,	-3.4226e-01,	9.9995e+00,	-5.6280e-03,	-7.7440e-03,	4.1254e-03,	0.0000e+00,	0,	1460043938356540814,	429832767
-3.2858e-01,	-3.5383e-01,	1.0006e+01,	-6.0258e-03,	-6.9101e-03,	4.9540e-03,	0.0000e+00,	0,	1460043938359025463,	432317416
-3.2515e-01,	-3.6345e-01,	1.0037e+01,	-6.3550e-03,	-5.9079e-03,	4.2419e-03,	0.0000e+00,	0,	1460043938361528112,	434820065
-3.2819e-01,	-3.6626e-01,	1.0059e+01,	-6.7123e-03,	-5.8798e-03,	2.8829e-03,	0.0000e+00,	0,	1460043938364041677,	437333630
-3.2771e-01,	-3.6230e-01,	1.0058e+01,	-6.9453e-03,	-6.5381e-03,	2.2649e-03,	0.0000e+00,	0,	1460043938366519326,	439811279
-3.2132e-01,	-3.5676e-01,	1.0041e+01,	-6.0658e-03,	-6.1457e-03,	2.1177e-03,	0.0000e+00,	0,	1460043938369035600,	442327553
-3.2161e-01,	-3.5370e-01,	1.0033e+01,	-4.3205e-03,	-4.8732e-03,	2.2849e-03,	0.0000e+00,	0,	1460043938371550666,	444842619
-3.2879e-01,	-3.5185e-01,	1.0043e+01,	-3.3459e-03,	-3.8982e-03,	4.0663e-03,	0.0000e+00,	0,	1460043938374026273,	447318226
-3.3079e-01,	-3.4650e-01,	1.0057e+01,	-4.0403e-03,	-3.0798e-03,	5.2123e-03,	0.0000e+00,	0,	1460043938376521547,	449813500
-3.2803e-01,	-3.3863e-01,	1.0061e+01,	-5.5309e-03,	-2.5921e-03,	3.4251e-03,	0.0000e+00,	0,	1460043938379052945,	452344898
-3.2707e-01,	-3.3507e-01,	1.0061e+01,	-6.4819e-03,	-2.8020e-03,	9.7945e-04,	0.0000e+00,	0,	1460043938381539511,	454831464
-3.2495e-01,	-3.3797e-01,	1.0057e+01,	-6.1767e-03,	-3.7972e-03,	-2.7966e-04,	0.0000e+00,	0,	1460043938384021660,	457313613
-3.1876e-01,	-3.4386e-01,	1.0043e+01,	-6.1271e-03,	-4.9652e-03,	7.0713e-04,	0.0000e+00,	0,	1460043938386535434,	459827387
-3.1497e-01,	-3.5052e-01,	1.0023e+01,	-6.7927e-03,	-5.4091e-03,	2.5381e-03,	0.0000e+00,	0,	1460043938389038416,	462330369
-3.2395e-01,	-3.5632e-01,	1.0022e+01,	-6.7820e-03,	-5.2532e-03,	3.1771e-03,	0.0000e+00,	0,	1460043938391526065,	464818018
-3.2972e-01,	-3.6271e-01,	1.0030e+01,	-5.8807e-03,	-5.3576e-03,	2.9382e-03,	0.0000e+00,	0,	1460043938394029714,	467321667
-3.2105e-01,	-3.6296e-01,	1.0035e+01,	-4.7905e-03,	-5.3086e-03,	2.7356e-03,	0.0000e+00,	0,	1460043938396538404,	469830357
-3.1240e-01,	-3.6047e-01,	1.0038e+01,	-4.0583e-03,	-5.2944e-03,	2.5478e-03,	0.0000e+00,	0,	1460043938399029011,	472320964
-3.2078e-01,	-3.5420e-01,	1.0042e+01,	-4.0789e-03,	-6.1617e-03,	1.3290e-03,	0.0000e+00,	0,	1460043938401538160,	474830113
-3.3408e-01,	-3.4655e-01,	1.0044e+01,	-5.1782e-03,	-7.1745e-03,	1.1423e-03,	0.0000e+00,	0,	1460043938404042225,	477334178
-3.4279e-01,	-3.4783e-01,	1.0042e+01,	-5.7712e-03,	-6.8821e-03,	3.2965e-03,	0.0000e+00,	0,	1460043938406540791,	479832744
-3.4346e-01,	-3.5718e-01,	1.0032e+01,	-5.6027e-03,	-5.6248e-03,	5.0806e-03,	0.0000e+00,	0,	1460043938409031232,	482323185
-3.3838e-01,	-3.7264e-01,	1.0016e+01,	-6.1252e-03,	-4.4922e-03,	4.9074e-03,	0.0000e+00,	0,	1460043938411554630,	484846583
-3.2969e-01,	-3.8370e-01,	1.0019e+01,	-6.7631e-03,	-4.3060e-03,	3.3596e-03,	0.0000e+00,	0,	1460043938414051696,	487343649
-3.2018e-01,	-3.7460e-01,	1.0043e+01,	-6.4849e-03,	-4.9958e-03,	2.7506e-03,	0.0000e+00,	0,	1460043938416534553,	489826506
-3.1180e-01,	-3.5867e-01,	1.0058e+01,	-6.5882e-03,	-5.5925e-03,	3.5717e-03,	0.0000e+00,	0,	1460043938419053285,	492345238
-3.1126e-01,	-3.5298e-01,	1.0054e+01,	-6.4614e-03,	-5.4486e-03,	4.2997e-03,	1.3476e-01,	1,	1460043938421570809,	494862762
-3.1723e-01,	-3.5697e-01,	1.0034e+01,	-6.0817e-03,	-4.7869e-03,	3.2206e-03,	0.0000e+00,	0,	1460043938424039416,	497331369
-3.2270e-01,	-3.6023e-01,	1.0017e+01,	-5.7245e-03,	-4.0998e-03,	2.4808e-03,	0.0000e+00,	0,	1460043938426558815,	499850768
-3.2086e-01,	-3.6131e-01,	1.0018e+01,	-5.5466e-03,	-4.1937e-03,	3.5673e-03,	0.0000e+00,	0,	1460043938429073214,	502365167
-3.1385e-01,	-3.5514e-01,	1.0024e+01,	-5.4419e-03,	-5.5086e-03,	4.6556e-03,	1.3475e-01,	1,	1460043938431555988,	504847941
-3.1529e-01,	-3.5451e-01,	1.0024e+01,	-6.1862e-03,	-6.0660e-03,	4.6890e-03,	0.0000e+00,	0,	1460043938434062011,	507353964
-3.2028e-01,	-3.5940e-01,	1.0045e+01,	-7.3158e-03,	-5.1788e-03,	3.6144e-03,	0.0000e+00,	0,	1460043938436574160,	509866113
-3.2238e-01,	-3.5338e-01,	1.0074e+01,	-7.3897e-03,	-4.8542e-03,	2.5991e-03,	0.0000e+00,	0,	1460043938439046309,	512338262
-3.2452e-01,	-3.3860e-01,	1.0072e+01,	-5.8309e-03,	-5.7524e-03,	3.1346e-03,	0.0000e+00,	0,	1460043938441565833,	514857786
-3.2591e-01,	-3.3199e-01,	1.0055e+01,	-4.0693e-03,	-5.8482e-03,	4.6323e-03,	0.0000e+00,	0,	1460043938444074565,	517366518
-3.2118e-01,	-3.4691e-01,	1.0040e+01,	-3.6823e-03,	-5.0423e-03,	4.7053e-03,	0.0000e+00,	0,	1460043938446546089,	519838042
-3.1701e-01,	-3.7517e-01,	1.0038e+01,	-4.0679e-03,	-4.1779e-03,	4.3990e-03,	0.0000e+00,	0,	1460043938449064613,	522356566
-3.1977e-01,	-3.8663e-01,	1.0048e+01,	-4.3277e-03,	-4.9410e-03,	4.8955e-03,	0.0000e+00,	0,	1460043938451558553,	524850506
-3.2046e-01,	-3.7115e-01,	1.0044e+01,	-5.6238e-03,	-6.8420e-03,	5.7313e-03,	0.0000e+00,	0,	1460043938454052160,	527344113
-3.1641e-01,	-3.5065e-01,	1.0025e+01,	-7.1380e-03,	-7.2959e-03,	5.8086e-03,	0.0000e+00,	0,	1460043938456565684,	529857637
-3.1752e-01,	-3.3886e-01,	1.0002e+01,	-6.7143e-03,	-5.7908e-03,	5.3627e-03,	0.0000e+00,	0,	1460043938459046583,	532338536
-3.2324e-01,	-3.4234e-01,	9.9905e+00,	-4.6767e-03,	-4.2935e-03,	4.7320e-03,	0.0000e+00,	0,	1460043938461565357,	534857310
-3.2937e-01,	-3.5298e-01,	9.9964e+00,	-3.8560e-03,	-4.4358e-03,	4.0754e-03,	0.0000e+00,	0,	1460043938464071756,	537363709
-3.3168e-01,	-3.6657e-01,	1.0022e+01,	-4.2968e-03,	-4.9767e-03,	2.9919e-03,	0.0000e+00,	0,	1460043938466546363,	539838316
-3.2476e-01,	-3.7570e-01,	1.0055e+01,	-5.1879e-03,	-4.5369e-03,	1.9472e-03,	0.0000e+00,	0,	1460043938469048304,	542340257
-3.1446e-01,	-3.7449e-01,	1.0072e+01,	-6.2950e-03,	-3.5530e-03,	1.6570e-03,	0.0000e+00,	0,	1460043938471578619,	544870572
-3.1433e-01,	-3.7757e-01,	1.0071e+01,	-7.3180e-03,	-3.5536e-03,	2.7313e-03,	0.0000e+00,	0,	1460043938474061809,	547353762
-3.2323e-01,	-3.9298e-01,	1.0056e+01,	-7.5405e-03,	-4.4714e-03,	3.9680e-03,	0.0000e+00,	0,	1460043938476523459,	549815412
-3.3282e-01,	-4.0313e-01,	1.0043e+01,	-6.6518e-03,	-5.3518e-03,	4.3432e-03,	0.0000e+00,	0,	1460043938479071399,	552363352
-3.3553e-01,	-3.9611e-01,	1.0037e+01,	-5.7471e-03,	-6.1734e-03,	4.2271e-03,	0.0000e+00,	0,	1460043938481562631,	554854584
-3.2598e-01,	-3.8660e-01,	1.0038e+01,	-5.7811e-03,	-6.8156e-03,	4.3200e-03,	0.0000e+00,	0,	1460043938484028280,	557320233
-3.1690e-01,	-3.8158e-01,	1.0032e+01,	-5.5290e-03,	-7.0371e-03,	4.9622e-03,	0.0000e+00,	0,	1460043938486565720,	559857673
-3.1300e-01,	-3.6982e-01,	1.0028e+01,	-4.6589e-03,	-6.4629e-03,	5.3515e-03,	0.0000e+00,	0,	1460043938489071952,	562363905
-3.2060e-01,	-3.5797e-01,	1.0029e+01,	-4.1818e-03,	-5.5661e-03,	4.6373e-03,	0.0000e+00,	0,	1460043938491520977,	564812930
-3.2653e-01,	-3.4784e-01,	1.0043e+01,	-4.5589e-03,	-6.1013e-03,	2.4668e-03,	0.0000e+00,	0,	1460043938494065625,	567357578
-3.2585e-01,	-3.4597e-01,	1.0058e+01,	-5.0581e-03,	-7.2958e-03,	1.9000e-03,	0.0000e+00,	0,	1460043938496570941,	569862894
-3.2920e-01,	-3.5473e-01,	1.0061e+01,	-4.8743e-03,	-7.9670e-03,	2.5912e-03,	0.0000e+00,	0,	1460043938499027173,	572319126
-3.2574e-01,	-3.6116e-01,	1.0052e+01,	-4.6678e-03,	-8.1511e-03,	3.1642e-03,	0.0000e+00,	0,	1460043938501526197,	574818150
-3.1142e-01,	-3.6595e-01,	1.0038e+01,	-5.1650e-03,	-7.4820e-03,	3.6739e-03,	0.0000e+00,	0,	1460043938504078262,	577370215
-3.0467e-01,	-3.6752e-01,	1.0044e+01,	-6.3749e-03,	-6.2587e-03,	3.8898e-03,	0.0000e+00,	0,	1460043938506521328,	579813281
-3.1013e-01,	-3.6150e-01,	1.0057e+01,	-7.2164e-03,	-6.0556e-03,	3.5212e-03,	0.0000e+00,	0,	1460043938509021893,	582313846
-3.1856e-01,	-3.5452e-01,	1.0055e+01,	-7.3714e-03,	-6.1428e-03,	3.6465e-03,	0.0000e+00,	0,	1460043938511546250,	584838203
-3.2385e-01,	-3.5606e-01,	1.0044e+01,	-6.4703e-03,	-5.0075e-03,	4.5594e-03,	1.3478e-01,	1,	1460043938514046233,	587338186
-3.3364e-01,	-3.7061e-01,	1.0045e+01,	-4.9908e-03,	-3.5300e-03,	4.9506e-03,	0.0000e+00,	0,	1460043938516523798,	589815751
-3.3860e-01,	-3.7574e-01,	1.0051e+01,	-5.3330e-03,	-3.5989e-03,	4.1890e-03,	0.0000e+00,	0,	1460043938519043739,	592335692
-3.3577e-01,	-3.7434e-01,	1.0042e+01,	-6.0158e-03,	-4.4303e-03,	3.3574e-03,	0.0000e+00,	0,	1460043938521549429,	594841382
-3.3248e-01,	-3.7010e-01,	1.0033e+01,	-6.1201e-03,	-4.9487e-03,	2.9619e-03,	1.3485e-01,	1,	1460043938524031245,	597323198
-3.3693e-01,	-3.5879e-01,	1.0032e+01,	-5.7837e-03,	-5.9600e-03,	2.9347e-03,	0.0000e+00,	0,	1460043938526544977,	599836930
-3.3678e-01,	-3.4700e-01,	1.0031e+01,	-5.4269e-03,	-7.9285e-03,	3.4281e-03,	0.0000e+00,	0,	1460043938529051209,	602343162
-3.3687e-01,	-3.4374e-01,	1.0039e+01,	-5.8787e-03,	-8.6210e-03,	3.6253e-03,	0.0000e+00,	0,	1460043938531521233,	604813186
-3.4105e-01,	-3.4862e-01,	1.0038e+01,	-7.0340e-03,	-7.8467e-03,	3.1216e-03,	0.0000e+00,	0,	1460043938534048423,	607340376
-3.4678e-01,	-3.6493e-01,	1.0017e+01,	-7.4134e-03,	-6.7568e-03,	2.5100e-03,	0.0000e+00,	0,	1460043938536551947,	609843900
-3.4878e-01,	-3.8282e-01,	1.0005e+01,	-5.8181e-03,	-5.7475e-03,	2.0698e-03,	0.0000e+00,	0,	1460043938539023263,	612315216
-3.4210e-01,	-3.8591e-01,	1.0016e+01,	-4.5752e-03,	-5.4950e-03,	3.4413e-03,	0.0000e+00,	0,	1460043938541545953,	614837906
-3.3427e-01,	-3.7277e-01,	1.0040e+01,	-4.3562e-03,	-6.3917e-03,	5.2569e-03,	0.0000e+00,	0,	1460043938544050602,	617342555
-3.2691e-01,	-3.5699e-01,	1.0050e+01,	-4.8815e-03,	-7.1623e-03,	4.9579e-03,	0.0000e+00,	0,	1460043938546530334,	619822287
-3.2220e-01,	-3.5464e-01,	1.0045e+01,	-5.6143e-03,	-7.2163e-03,	4.0147e-03,	0.0000e+00,	0,	1460043938549045441,	622337394
-3.2209e-01,	-3.6101e-01,	1.0043e+01,	-5.8247e-03,	-7.0212e-03,	4.2187e-03,	0.0000e+00,	0,	1460043938551524049,	624816002
-3.2776e-01,	-3.6215e-01,	1.0053e+01,	-4.9737e-03,	-6.6262e-03,	4.6512e-03,	0.0000e+00,	0,	1460043938554041406,	627333359
-3.3299e-01,	-3.6495e-01,	1.0051e+01,	-3.9568e-03,	-6.2461e-03,	3.8824e-03,	0.0000e+00,	0,	1460043938556552221,	629844174
-3.3205e-01,	-3.6820e-01,	1.0040e+01,	-3.7615e-03,	-6.0793e-03,	3.0923e-03,	0.0000e+00,	0,	1460043938559021245,	632313198
-3.2327e-01,	-3.7219e-01,	1.0038e+01,	-4.6329e-03,	-6.0135e-03,	2.8834e-03,	0.0000e+00,	0,	1460043938561525227,	634817180
-3.2068e-01,	-3.7012e-01,	1.0043e+01,	-5.4541e-03,	-5.5261e-03,	3.2771e-03,	0.0000e+00,	0,	1460043938564054876,	637346829
-3.2827e-01,	-3.6441e-01,	1.0055e+01,	-5.6514e-03,	-4.2272e-03,	4.4374e-03,	0.0000e+00,	0,	1460043938566537275,	639829228
-3.3038e-01,	-3.5596e-01,	1.0056e+01,	-5.4725e-03,	-2.8905e-03,	5.1142e-03,	0.0000e+00,	0,	1460043938569024465,	642316418
-3.2660e-01,	-3.4782e-01,	1.0039e+01,	-5.6326e-03,	-2.9463e-03,	4.7792e-03,	0.0000e+00,	0,	1460043938571540489,	644832442
-3.2253e-01,	-3.5499e-01,	1.0016e+01,	-5.5813e-03,	-4.7478e-03,	3.8666e-03,	0.0000e+00,	0,	1460043938574035680,	647327633
-3.2279e-01,	-3.6620e-01,	1.0015e+01,	-5.8700e-03,	-6.0962e-03,	3.3364e-03,	0.0000e+00,	0,	1460043938576532704,	649824657
-3.2340e-01,	-3.6581e-01,	1.0040e+01,	-6.2184e-03,	-5.9877e-03,	3.6346e-03,	0.0000e+00,	0,	1460043938579040644,	652332597
-3.2337e-01,	-3.5867e-01,	1.0055e+01,	-6.1524e-03,	-5.7929e-03,	4.1967e-03,	0.0000e+00,	0,	1460043938581546084,	654838037
-3.2455e-01,	-3.4966e-01,	1.0053e+01,	-6.0267e-03,	-4.9079e-03,	4.1236e-03,	0.0000e+00,	0,	1460043938584029192,	657321145
-3.3335e-01,	-3.4103e-01,	1.0047e+01,	-5.3258e-03,	-3.8288e-03,	3.7164e-03,	0.0000e+00,	0,	1460043938586550549,	659842502
-3.4606e-01,	-3.3986e-01,	1.0043e+01,	-4.9048e-03,	-4.3781e-03,	3.3451e-03,	0.0000e+00,	0,	1460043938589056531,	662348484
-3.5335e-01,	-3.5205e-01,	1.0037e+01,	-4.7622e-03,	-5.7773e-03,	3.0995e-03,	0.0000e+00,	0,	1460043938591538055,	664830008
-3.5445e-01,	-3.6324e-01,	1.0033e+01,	-3.9096e-03,	-7.7286e-03,	2.5046e-03,	0.0000e+00,	0,	1460043938594041329,	667333282
-3.4597e-01,	-3.6392e-01,	1.0036e+01,	-3.3717e-03,	-9.0399e-03,	1.6978e-03,	0.0000e+00,	0,	1460043938596568269,	669860222
-3.2930e-01,	-3.5805e-01,	1.0044e+01,	-3.9866e-03,	-8.7838e-03,	2.1163e-03,	0.0000e+00,	0,	1460043938599051168,	672343121
-3.1709e-01,	-3.5591e-01,	1.0064e+01,	-5.4492e-03,	-7.6834e-03,	2.4810e-03,	0.0000e+00,	0,	1460043938601540442,	674832395
-3.1629e-01,	-3.5954e-01,	1.0085e+01,	-5.4248e-03,	-6.8558e-03,	2.1327e-03,	0.0000e+00,	0,	1460043938604059257,	677351210
-3.3156e-01,	-3.7232e-01,	1.0087e+01,	-4.2389e-03,	-6.2052e-03,	1.8234e-03,	1.3475e-01,	1,	1460043938606566656,	679858609
-3.4703e-01,	-3.7102e-01,	1.0076e+01,	-3.5624e-03,	-6.0914e-03,	2.5324e-03,	0.0000e+00,	0,	1460043938609045597,	682337550
-3.4016e-01,	-3.4939e-01,	1.0064e+01,	-4.7181e-03,	-7.1991e-03,	3.4238e-03,	0.0000e+00,	0,	1460043938611564245,	684856198
-3.2163e-01,	-3.2815e-01,	1.0055e+01,	-6.1049e-03,	-8.2776e-03,	4.5343e-03,	0.0000e+00,	0,	1460043938614074269,	687366222
-3.1292e-01,	-3.2235e-01,	1.0061e+01,	-7.3440e-03,	-8.1077e-03,	4.8217e-03,	1.3475e-01,	1,	1460043938616558251,	689850204
-3.1975e-01,	-3.3219e-01,	1.0075e+01,	-8.4541e-03,	-6.6034e-03,	3.9275e-03,	0.0000e+00,	0,	1460043938619065817,	692357770
-3.2740e-01,	-3.5115e-01,	1.0077e+01,	-9.0777e-03,	-4.2589e-03,	2.0927e-03,	0.0000e+00,	0,	1460043938621576674,	694868627
-3.3580e-01,	-3.5605e-01,	1.0062e+01,	-8.9302e-03,	-3.1716e-03,	1.2453e-03,	0.0000e+00,	0,	1460043938624049490,	697341443
-3.3853e-01,	-3.5219e-01,	1.0040e+01,	-9.0086e-03,	-3.2698e-03,	1.6281e-03,	0.0000e+00,	0,	1460043938626574972,	699866925
-3.3560e-01,	-3.5393e-01,	1.0027e+01,	-8.8879e-03,	-3.9933e-03,	2.0641e-03,	0.0000e+00,	0,	1460043938629085745,	702377698
-3.3222e-01,	-3.6048e-01,	1.0010e+01,	-8.2342e-03,	-4.0424e-03,	2.7727e-03,	0.0000e+00,	0,	1460043938631551020,	704842973
-3.2698e-01,	-3.6306e-01,	9.9954e+00,	-7.7021e-03,	-3.0862e-03,	3.5944e-03,	0.0000e+00,	0,	1460043938634066585,	707358538
-3.3479e-01,	-3.6799e-01,	1.0002e+01,	-7.3474e-03,	-3.2360e-03,	3.2691e-03,	0.0000e+00,	0,	1460043938636586900,	709878853
-3.4584e-01,	-3.7178e-01,	1.0011e+01,	-6.9240e-03,	-4.1524e-03,	2.3190e-03,	0.0000e+00,	0,	1460043938639057716,	712349669
-3.4372e-01,	-3.6970e-01,	1.0014e+01,	-5.9306e-03,	-5.5812e-03,	1.6242e-03,	0.0000e+00,	0,	1460043938641569198,	714861151
-3.3461e-01,	-3.6037e-01,	1.0003e+01,	-4.6235e-03,	-7.7724e-03,	1.3341e-03,	0.0000e+00,	0,	1460043938644055139,	717347092
-3.3200e-01,	-3.4003e-01,	9.9849e+00,	-4.5152e-03,	-9.3378e-03,	9.9247e-04,	0.0000e+00,	0,	1460043938646566871,	719858824
-3.3953e-01,	-3.2228e-01,	9.9856e+00,	-4.4149e-03,	-9.3726e-03,	2.0815e-03,	0.0000e+00,	0,	1460043938649074145,	722366098
-3.4538e-01,	-3.3031e-01,	1.0008e+01,	-4.1989e-03,	-9.0403e-03,	3.4085e-03,	0.0000e+00,	0,	1460043938651525210,	724817163
-3.4042e-01,	-3.4949e-01,	1.0035e+01,	-4.3578e-03,	-8.2739e-03,	3.0373e-03,	0.0000e+00,	0,	1460043938654025026,	727316979
-3.3701e-01,	-3.6066e-01,	1.0055e+01,	-4.6891e-03,	-7.3844e-03,	1.4283e-03,	0.0000e+00,	0,	1460043938656578383,	729870336
-3.3837e-01,	-3.6539e-01,	1.0062e+01,	-5.1251e-03,	-6.5256e-03,	6.8973e-04,	0.0000e+00,	0,	1460043938659058365,	732350318
-3.3278e-01,	-3.6419e-01,	1.0068e+01,	-5.2380e-03,	-5.9030e-03,	6.5560e-04,	0.0000e+00,	0,	1460043938661526597,	734818550
-3.3278e-01,	-3.5811e-01,	1.0076e+01,	-5.6371e-03,	-5.7793e-03,	1.0592e-03,	0.0000e+00,	0,	1460043938664067038,	737358991
-3.4257e-01,	-3.5801e-01,	1.0080e+01,	-5.4632e-03,	-5.6871e-03,	1.6146e-03,	0.0000e+00,	0,	1460043938666532478,	739824431
-3.4949e-01,	-3.6653e-01,	1.0073e+01,	-4.4699e-03,	-5.5772e-03,	2.3687e-03,	0.0000e+00,	0,	1460043938669033919,	742325872
-3.4594e-01,	-3.7254e-01,	1.0056e+01,	-3.2325e-03,	-6.1902e-03,	2.9423e-03,	0.0000e+00,	0,	1460043938671573942,	744865895
-3.3626e-01,	-3.7137e-01,	1.0044e+01,	-3.1130e-03,	-6.5434e-03,	3.1553e-03,	0.0000e+00,	0,	1460043938674039925,	747331878
-3.2314e-01,	-3.5738e-01,	1.0034e+01,	-4.3260e-03,	-6.5064e-03,	3.6773e-03,	0.0000e+00,	0,	1460043938676524407,	749816360
-3.0956e-01,	-3.4461e-01,	1.0024e+01,	-5.9545e-03,	-6.3512e-03,	5.3478e-03,	0.0000e+00,	0,	1460043938679074722,	752366675
-3.1201e-01,	-3.5158e-01,	1.0015e+01,	-6.7407e-03,	-6.3973e-03,	6.7600e-03,	0.0000e+00,	0,	1460043938681543455,	754835408
-3.1993e-01,	-3.5731e-01,	1.0025e+01,	-6.0524e-03,	-6.2940e-03,	6.5594e-03,	0.0000e+00,	0,	1460043938684024687,	757316640
-3.2179e-01,	-3.5360e-01,	1.0047e+01,	-5.0088e-03,	-5.8472e-03,	6.4627e-03,	0.0000e+00,	0,	1460043938686537544,	759829497
-3.1985e-01,	-3.5152e-01,	1.0047e+01,	-4.6374e-03,	-5.4090e-03,	7.0205e-03,	0.0000e+00,	0,	1460043938689080609,	762372562
-3.1713e-01,	-3.5050e-01,	1.0031e+01,	-4.8648e-03,	-5.4024e-03,	7.5171e-03,	0.0000e+00,	0,	1460043938691530925,	764822878
-3.1359e-01,	-3.5880e-01,	1.0018e+01,	-5.2661e-03,	-5.7584e-03,	7.7739e-03,	0.0000e+00,	0,	1460043938694031032,	767322985
-3.1228e-01,	-3.7533e-01,	1.0015e+01,	-5.3606e-03,	-6.1816e-03,	8.0704e-03,	0.0000e+00,	0,	1460043938696548973,	769840926
-3.1772e-01,	-3.8897e-01,	1.0029e+01,	-4.4019e-03,	-5.9063e-03,	7.2149e-03,	1.3480e-01,	1,	1460043938699043247,	772335200
-3.1846e-01,	-3.9206e-01,	1.0037e+01,	-2.6164e-03,	-5.9157e-03,	5.3406e-03,	0.0000e+00,	0,	1460043938701527979,	774819932
-3.1625e-01,	-3.8432e-01,	1.0029e+01,	-1.9934e-03,	-6.4897e-03,	4.0112e-03,	0.0000e+00,	0,	1460043938704049002,	777340955
-3.1575e-01,	-3.7610e-01,	1.0006e+01,	-3.9036e-03,	-6.9134e-03,	4.4245e-03,	0.0000e+00,	0,	1460043938706544776,	779836729
-3.1163e-01,	-3.8150e-01,	1.0002e+01,	-6.2379e-03,	-7.0773e-03,	6.9610e-03,	1.3480e-01,	1,	1460043938709034967,	782326920
-3.0796e-01,	-3.9038e-01,	1.0014e+01,	-6.9569e-03,	-7.6697e-03,	8.4916e-03,	0.0000e+00,	0,	1460043938711550199,	784842152
-3.0604e-01,	-3.9041e-01,	1.0035e+01,	-7.0384e-03,	-7.9862e-03,	7.3813e-03,	0.0000e+00,	0,	1460043938714053306,	787345259
-3.0826e-01,	-3.8442e-01,	1.0047e+01,	-7.5287e-03,	-7.5700e-03,	5.9641e-03,	0.0000e+00,	0,	1460043938716525913,	789817866
-3.1316e-01,	-3.7360e-01,	1.0053e+01,	-8.0052e-03,	-6.8235e-03,	5.6611e-03,	0.0000e+00,	0,	1460043938719057979,	792349932
-3.1047e-01,	-3.6872e-01,	1.0064e+01,	-7.6534e-03,	-5.9399e-03,	6.2596e-03,	0.0000e+00,	0,	1460043938721561544,	794853497
-2.9513e-01,	-3.7693e-01,	1.0070e+01,	-6.4712e-03,	-5.5999e-03,	6.4247e-03,	0.0000e+00,	0,	1460043938724027152,	797319105
-2.7915e-01,	-3.8413e-01,	1.0069e+01,	-5.8141e-03,	-5.8375e-03,	5.5191e-03,	0.0000e+00,	0,	1460043938726550092,	799842045
-2.8227e-01,	-3.8362e-01,	1.0060e+01,	-5.3516e-03,	-6.9304e-03,	4.4679e-03,	0.0000e+00,	0,	1460043938729064991,	802356944
-2.9526e-01,	-3.8553e-01,	1.0052e+01,	-5.0821e-03,	-7.8593e-03,	4.1943e-03,	0.0000e+00,	0,	1460043938731534348,	804826301
-2.9746e-01,	-3.9612e-01,	1.0051e+01,	-5.2703e-03,	-7.6522e-03,	4.7059e-03,	0.0000e+00,	0,	1460043938734049622,	807341575
-2.8991e-01,	-3.9943e-01,	1.0039e+01,	-5.7679e-03,	-6.6125e-03,	4.8972e-03,	0.0000e+00,	0,	1460043938736540187,	809832140
-2.8251e-01,	-4.0295e-01,	1.0025e+01,	-5.6472e-03,	-5.0698e-03,	4.8158e-03,	0.0000e+00,	0,	1460043938739040753,	812332706
-2.8236e-01,	-4.0228e-01,	1.0020e+01,	-4.9831e-03,	-3.6360e-03,	4.5757e-03,	0.0000e+00,	0,	1460043938741557902,	814849855
-3.0362e-01,	-3.5796e-01,	1.0020e+01,	-5.4760e-03,	-3.0047e-03,	4.1020e-03,	0.0000e+00,	0,	1460043938744031176,	817323129
-3.1533e-01,	-3.1519e-01,	1.0023e+01,	-7.3258e-03,	-3.7933e-03,	3.8088e-03,	0.0000e+00,	0,	1460043938746527200,	819819153
-3.2633e-01,	-3.3489e-01,	1.0047e+01,	-8.7651e-03,	-5.2258e-03,	3.5314e-03,	0.0000e+00,	0,	1460043938749060265,	822352218
-3.5682e-01,	-3.9511e-01,	1.0071e+01,	-8.6931e-03,	-6.5169e-03,	3.0392e-03,	0.0000e+00,	0,	1460043938751534497,	824826450
-3.5437e-01,	-4.3764e-01,	1.0092e+01,	-6.8125e-03,	-7.8059e-03,	2.7477e-03,	0.0000e+00,	0,	1460043938754029063,	827321016
-3.2183e-01,	-4.3816e-01,	1.0102e+01,	-4.3329e-03,	-8.0227e-03,	3.3456e-03,	0.0000e+00,	0,	1460043938756549920,	829841873
-3.0768e-01,	-4.1032e-01,	1.0096e+01,	-3.3883e-03,	-7.3333e-03,	4.6725e-03,	0.0000e+00,	0,	1460043938759035902,	832327855
-3.2596e-01,	-3.4358e-01,	1.0079e+01,	-3.3859e-03,	-7.4068e-03,	5.2541e-03,	0.0000e+00,	0,	1460043938761537426,	834829379
-3.0975e-01,	-2.8263e-01,	1.0054e+01,	-4.7699e-03,	-7.9529e-03,	4.3883e-03,	0.0000e+00,	0,	1460043938764052366,	837344319
-2.8162e-01,	-3.0377e-01,	1.0034e+01,	-7.5970e-03,	-6.3015e-03,	3.3955e-03,	0.0000e+00,	0,	1460043938766547515,	839839468
-2.8710e-01,	-3.6201e-01,	1.0020e+01,	-9.0340e-03,	-4.2474e-03,	2.9211e-03,	0.0000e+00,	0,	1460043938769037497,	842329450
-3.1331e-01,	-3.8061e-01,	1.0018e+01,	-8.3882e-03,	-2.3918e-03,	2.8046e-03,	0.0000e+00,	0,	1460043938771565146,	844857099
-3.1759e-01,	-3.5811e-01,	1.0030e+01,	-6.7557e-03,	-6.3817e-04,	2.4469e-03,	0.0000e+00,	0,	1460043938774058128,	847350081
-3.3353e-01,	-3.4127e-01,	1.0051e+01,	-5.5026e-03,	5.6000e-05,	1.7960e-03,	0.0000e+00,	0,	1460043938776539069,	849831022
-3.8170e-01,	-3.3756e-01,	1.0089e+01,	-6.3037e-03,	-1.6132e-03,	1.2332e-03,	0.0000e+00,	0,	1460043938779052176,	852344129
-3.8479e-01,	-3.4266e-01,	1.0117e+01,	-8.3480e-03,	-5.4275e-03,	9.7548e-04,	0.0000e+00,	0,	1460043938781579616,	854871569
-3.3653e-01,	-3.5590e-01,	1.0112e+01,	-8.7497e-03,	-8.6104e-03,	4.8735e-04,	0.0000e+00,	0,	1460043938784044099,	857336052
-3.2296e-01,	-3.8598e-01,	1.0094e+01,	-6.3430e-03,	-9.3834e-03,	-6.4762e-04,	0.0000e+00,	0,	1460043938786550706,	859842659
-3.5284e-01,	-4.0486e-01,	1.0052e+01,	-2.9176e-03,	-9.6872e-03,	-1.0751e-03,	0.0000e+00,	0,	1460043938789072646,	862364599
-3.5321e-01,	-3.7162e-01,	9.9943e+00,	-5.9874e-04,	-9.5211e-03,	-9.8172e-04,	1.3478e-01,	1,	1460043938791567003,	864858956
-3.2389e-01,	-3.2762e-01,	9.9701e+00,	-1.6041e-03,	-7.3020e-03,	-9.9045e-04,	0.0000e+00,	0,	1460043938794050944,	867342897
-3.2632e-01,	-3.2009e-01,	9.9793e+00,	-4.3433e-03,	-4.0516e-03,	-1.3217e-03,	0.0000e+00,	0,	1460043938796575468,	869867421
-3.4211e-01,	-3.5273e-01,	9.9980e+00,	-4.9179e-03,	-2.6986e-03,	-1.7866e-03,	0.0000e+00,	0,	1460043938799070866,	872362819
-3.3393e-01,	-3.8044e-01,	1.0022e+01,	-3.9796e-03,	-2.2613e-03,	-2.7512e-03,	1.3473e-01,	1,	1460043938801562682,	874854635
-3.1870e-01,	-3.7641e-01,	1.0048e+01,	-3.9844e-03,	-2.2512e-03,	-2.8849e-03,	0.0000e+00,	0,	1460043938804077414,	877369367
-3.3123e-01,	-3.5790e-01,	1.0055e+01,	-4.5540e-03,	-3.4030e-03,	-1.2262e-03,	0.0000e+00,	0,	1460043938806580271,	879872224
-3.5612e-01,	-3.3081e-01,	1.0048e+01,	-4.8447e-03,	-5.8043e-03,	4.4250e-04,	0.0000e+00,	0,	1460043938809053587,	882345540
-3.6035e-01,	-3.0893e-01,	1.0043e+01,	-4.7920e-03,	-7.9622e-03,	6.3105e-04,	0.0000e+00,	0,	1460043938811586569,	884878522
-3.4616e-01,	-3.2794e-01,	1.0062e+01,	-5.2245e-03,	-8.7303e-03,	1.9687e-04,	0.0000e+00,	0,	1460043938814089301,	887381254
-3.3448e-01,	-3.6836e-01,	1.0069e+01,	-6.3958e-03,	-7.5971e-03,	-2.1282e-04,	0.0000e+00,	0,	1460043938816555908,	889847861
-3.0360e-01,	-3.7936e-01,	1.0043e+01,	-7.2207e-03,	-6.2186e-03,	1.5432e-04,	0.0000e+00,	0,	1460043938819071265,	892363218
-2.6738e-01,	-3.4424e-01,	9.9765e+00,	-7.8143e-03,	-3.7735e-03,	1.0736e-03,	0.0000e+00,	0,	1460043938821598372,	894890325
-2.7584e-01,	-3.2130e-01,	9.8962e+00,	-8.7072e-03,	-2.8390e-04,	1.5349e-03,	0.0000e+00,	0,	1460043938824063188,	897355141
-3.0972e-01,	-3.4447e-01,	9.8502e+00,	-8.8762e-03,	3.0524e-03,	1.6790e-03,	0.0000e+00,	0,	1460043938826570795,	899862748
-3.1050e-01,	-3.6887e-01,	9.8507e+00,	-8.1420e-03,	6.5816e-03,	1.7363e-03,	0.0000e+00,	0,	1460043938829075736,	902367689
-2.9998e-01,	-3.4157e-01,	9.8706e+00,	-7.8813e-03,	9.3629e-03,	9.2951e-04,	0.0000e+00,	0,	1460043938831569760,	904861713
-3.4558e-01,	-3.3633e-01,	9.9174e+00,	-7.1037e-03,	8.1568e-03,	-1.5316e-03,	0.0000e+00,	0,	1460043938834078283,	907370236
-4.2213e-01,	-4.1550e-01,	1.0022e+01,	-4.2835e-03,	1.4905e-03,	-3.0830e-03,	0.0000e+00,	0,	1460043938836560557,	909852510
-4.5908e-01,	-4.8489e-01,	1.0177e+01,	1.7731e-03,	-8.5698e-03,	-2.5086e-03,	0.0000e+00,	0,	1460043938839029040,	912320993
-4.6756e-01,	-4.7901e-01,	1.0317e+01,	8.6497e-03,	-1.9146e-02,	-1.0880e-03,	0.0000e+00,	0,	1460043938841579313,	914871266
-4.6979e-01,	-4.2320e-01,	1.0366e+01,	1.3817e-02,	-2.9376e-02,	1.6584e-04,	0.0000e+00,	0,	1460043938844035379,	917327332
-4.1702e-01,	-3.7334e-01,	1.0290e+01,	1.5998e-02,	-3.6500e-02,	3.8244e-05,	0.0000e+00,	0,	1460043938846530320,	919822273
-3.1928e-01,	-3.4020e-01,	1.0135e+01,	1.4933e-02,	-3.6641e-02,	9.3885e-04,	0.0000e+00,	0,	1460043938849070093,	922362046
-2.5427e-01,	-3.2705e-01,	1.0026e+01,	1.2212e-02,	-3.1576e-02,	5.0037e-03,	0.0000e+00,	0,	1460043938851528867,	924820820
-2.5650e-01,	-3.7309e-01,	1.0054e+01,	1.0858e-02,	-2.5759e-02,	9.0342e-03,	0.0000e+00,	0,	1460043938854039391,	927331344
-2.7088e-01,	-4.2094e-01,	1.0153e+01,	1.1124e-02,	-2.1990e-02,	1.1002e-02,	0.0000e+00,	0,	1460043938856571540,	929863493
-2.7110e-01,	-3.6575e-01,	1.0177e+01,	9.6048e-03,	-1.9223e-02,	1.0971e-02,	0.0000e+00,	0,	1460043938859036730,	932328683
-2.8970e-01,	-2.6884e-01,	1.0081e+01,	3.8437e-03,	-1.6644e-02,	9.8429e-03,	0.0000e+00,	0,	1460043938861531088,	934823041
-3.3130e-01,	-2.5142e-01,	9.9645e+00,	-4.0516e-03,	-1.4034e-02,	9.8554e-03,	0.0000e+00,	0,	1460043938864076986,	937368939
-3.2497e-01,	-3.1391e-01,	9.9174e+00,	-9.6372e-03,	-1.0410e-02,	1.1047e-02,	0.0000e+00,	0,	1460043938866543302,	939835255
-2.6552e-01,	-3.6629e-01,	9.9504e+00,	-1.1070e-02,	-4.8473e-03,	1.2103e-02,	0.0000e+00,	0,	1460043938869029701,	942321654
-2.4525e-01,	-3.6802e-01,	9.9971e+00,	-1.0683e-02,	1.5404e-03,	1.2545e-02,	0.0000e+00,	0,	1460043938871544766,	944836719
-2.8760e-01,	-3.2975e-01,	1.0000e+01,	-1.0902e-02,	6.5048e-03,	1.1840e-02,	1.3480e-01,	1,	1460043938874052998,	947344951
-3.2832e-01,	-2.6547e-01,	9.9605e+00,	-1.3290e-02,	8.4779e-03,	1.0671e-02,	0.0000e+00,	0,	1460043938876530147,	949822100
-3.3616e-01,	-2.4180e-01,	9.9126e+00,	-1.8052e-02,	8.6746e-03,	9.6478e-03,	0.0000e+00,	0,	1460043938879041046,	952332999
-3.2055e-01,	-2.9097e-01,	9.9150e+00,	-2.2394e-02,	9.7048e-03,	8.8763e-03,	0.0000e+00,	0,	1460043938881545862,	954837815
-2.9539e-01,	-3.5371e-01,	9.9671e+00,	-2.4821e-02,	1.3339e-02,	7.9339e-03,	1.3480e-01,	1,	1460043938884042719,	957334672
-2.8071e-01,	-3.8172e-01,	1.0001e+01,	-2.5465e-02,	1.8602e-02,	7.1299e-03,	0.0000e+00,	0,	1460043938886536076,	959828029
-2.8964e-01,	-3.6251e-01,	9.9749e+00,	-2.4764e-02,	2.2904e-02,	6.7321e-03,	0.0000e+00,	0,	1460043938889052933,	962344886
-3.3073e-01,	-3.2248e-01,	9.9103e+00,	-2.3388e-02,	2.3950e-02,	6.3108e-03,	0.0000e+00,	0,	1460043938891542207,	964834160
-3.9256e-01,	-3.5723e-01,	9.9184e+00,	-2.0531e-02,	2.0067e-02,	5.5827e-03,	1.3480e-01,	1,	1460043938894038606,	967330559
-4.4297e-01,	-4.3658e-01,	1.0034e+01,	-1.5095e-02,	1.2192e-02,	3.2377e-03,	0.0000e+00,	0,	1460043938896552880,	969844833
-4.5845e-01,	-4.6787e-01,	1.0176e+01,	-6.9110e-03,	1.8070e-03,	1.8612e-04,	0.0000e+00,	0,	1460043938899046320,	972338273
-4.8009e-01,	-4.3711e-01,	1.0243e+01,	1.8216e-03,	-9.5194e-03,	-2.1304e-03,	0.0000e+00,	0,	1460043938901529844,	974821797
-4.9997e-01,	-3.7108e-01,	1.0177e+01,	6.3260e-03,	-2.2075e-02,	-3.9223e-03,	0.0000e+00,	0,	1460043938904060534,	977352487
-4.6078e-01,	-3.2729e-01,	1.0048e+01,	7.0260e-03,	-3.1943e-02,	-6.5014e-03,	0.0000e+00,	0,	1460043938906572016,	979863969
-3.5327e-01,	-3.0505e-01,	9.9476e+00,	6.3146e-03,	-3.4896e-02,	-8.3928e-03,	0.0000e+00,	0,	1460043938909029332,	982321285
-2.5169e-01,	-3.1686e-01,	9.9285e+00,	6.5668e-03,	-3.1238e-02,	-7.7139e-03,	0.0000e+00,	0,	1460043938911552231,	984844184
-2.3631e-01,	-3.9055e-01,	9.9712e+00,	9.3868e-03,	-2.4574e-02,	-5.9487e-03,	0.0000e+00,	0,	1460043938914073796,	987365749
-2.8734e-01,	-4.2526e-01,	1.0034e+01,	1.2328e-02,	-1.9905e-02,	-5.2144e-03,	0.0000e+00,	0,	1460043938916539737,	989831690
-3.1996e-01,	-3.3087e-01,	1.0073e+01,	1.1577e-02,	-1.7828e-02,	-5.9195e-03,	0.0000e+00,	0,	1460043938919052636,	992344589
-3.2101e-01,	-2.0858e-01,	1.0064e+01,	5.3905e-03,	-1.5671e-02,	-6.5162e-03,	0.0000e+00,	0,	1460043938921552535,	994844488
-3.4111e-01,	-1.8849e-01,	1.0043e+01,	-3.5082e-03,	-1.4167e-02,	-5.9309e-03,	0.0000e+00,	0,	1460043938924041225,	997333178
-3.3721e-01,	-2.7394e-01,	1.0038e+01,	-8.9951e-03,	-1.3810e-02,	-5.0775e-03,	0.0000e+00,	0,	1460043938926561207,	999853160
-2.7021e-01,	-3.7000e-01,	1.0041e+01,	-9.0760e-03,	-1.0684e-02,	-5.9003e-03,	0.0000e+00,	0,	1460043938929043356,	1002335309
-2.3110e-01,	-4.1942e-01,	1.0055e+01,	-5.4102e-03,	-2.8248e-03,	-7.2781e-03,	0.0000e+00,	0,	1460043938931531630,	1004823583
-2.6567e-01,	-4.0009e-01,	1.0074e+01,	-2.8369e-03,	4.7722e-03,	-6.3862e-03,	0.0000e+00,	0,	1460043938934053487,	1007345440
-3.2214e-01,	-3.1128e-01,	1.0082e+01,	-3.8903e-03,	8.2224e-03,	-4.2544e-03,	0.0000e+00,	0,	1460043938936543928,	1009835881
-3.3612e-01,	-2.3987e-01,	1.0060e+01,	-8.6772e-03,	8.3390e-03,	-3.5019e-03,	0.0000e+00,	0,	1460043938939030535,	1012322488
-3.1573e-01,	-2.6190e-01,	1.0046e+01,	-1.5509e-02,	7.0136e-03,	-2.0603e-03,	0.0000e+00,	0,	1460043938941555767,	1014847720
-2.9945e-01,	-3.3318e-01,	1.0056e+01,	-2.0081e-02,	6.7693e-03,	8.1823e-04,	0.0000e+00,	0,	1460043938944031624,	1017323577
-2.7586e-01,	-3.8635e-01,	1.0088e+01,	-2.0486e-02,	9.9631e-03,	3.6003e-03,	0.0000e+00,	0,	1460043938946542898,	1019834851
-2.5545e-01,	-3.8760e-01,	1.0100e+01,	-1.8978e-02,	1.4753e-02,	5.0821e-03,	0.0000e+00,	0,	1460043938949058422,	1022350375
-3.0199e-01,	-3.6757e-01,	1.0088e+01,	-1.6888e-02,	1.7599e-02,	5.4217e-03,	0.0000e+00,	0,	1460043938951545862,	1024837815
-3.9690e-01,	-3.9750e-01,	1.0104e+01,	-1.5042e-02,	1.5177e-02,	5.4165e-03,	0.0000e+00,	0,	1460043938954040886,	1027332839
-4.3406e-01,	-4.2435e-01,	1.0157e+01,	-1.2418e-02,	7.1714e-03,	4.3677e-03,	0.0000e+00,	0,	1460043938956571701,	1029863654
-3.8468e-01,	-4.2052e-01,	1.0198e+01,	-8.4502e-03,	-1.4458e-03,	3.3074e-03,	0.0000e+00,	0,	1460043938959057225,	1032349178
-3.4503e-01,	-4.0941e-01,	1.0133e+01,	-4.8653e-03,	-6.8714e-03,	3.6200e-03,	0.0000e+00,	0,	1460043938961546499,	1034838452
-3.3606e-01,	-3.9486e-01,	9.9537e+00,	-2.8665e-03,	-9.4117e-03,	5.4303e-03,	0.0000e+00,	0,	1460043938964069231,	1037361184
-3.1530e-01,	-3.6850e-01,	9.7971e+00,	-2.6529e-03,	-9.5537e-03,	7.5235e-03,	1.3481e-01,	1,	1460043938966572922,	1039864875
-2.7470e-01,	-3.4075e-01,	9.7455e+00,	-3.6396e-03,	-7.8235e-03,	9.9224e-03,	0.0000e+00,	0,	1460043938969049029,	1042340982
-2.5373e-01,	-3.5529e-01,	9.7770e+00,	-4.3266e-03,	-4.6205e-03,	1.0849e-02,	0.0000e+00,	0,	1460043938971569594,	1044861547
-2.7872e-01,	-4.0772e-01,	9.7997e+00,	-3.2285e-03,	-1.3046e-03,	9.7326e-03,	0.0000e+00,	0,	1460043938974080577,	1047372530
-3.0633e-01,	-4.0519e-01,	9.7843e+00,	-2.7884e-03,	-5.2454e-04,	7.3319e-03,	1.3480e-01,	1,	1460043938976566767,	1049858720
-3.3747e-01,	-2.8644e-01,	9.7916e+00,	-6.4403e-03,	-2.1809e-03,	7.7073e-03,	0.0000e+00,	0,	1460043938979069749,	1052361702
-3.8847e-01,	-2.5612e-01,	9.8853e+00,	-1.1011e-02,	-7.1381e-03,	9.3476e-03,	0.0000e+00,	0,	1460043938981580898,	1054872851
-4.3241e-01,	-3.7943e-01,	1.0070e+01,	-1.1544e-02,	-1.3357e-02,	1.0469e-02,	0.0000e+00,	0,	1460043938984068964,	1057360917
-4.3253e-01,	-5.1156e-01,	1.0280e+01,	-5.6335e-03,	-2.0429e-02,	1.0504e-02,	1.3480e-01,	1,	1460043938986567904,	1059859857
-3.5661e-01,	-5.5956e-01,	1.0403e+01,	5.1089e-03,	-2.5221e-02,	1.0651e-02,	0.0000e+00,	0,	1460043938989081095,	1062373048
-3.0507e-01,	-4.9110e-01,	1.0378e+01,	1.5723e-02,	-2.6489e-02,	1.1167e-02,	0.0000e+00,	0,	1460043938991575160,	1064867113
-2.9633e-01,	-3.4256e-01,	1.0228e+01,	2.0547e-02,	-2.6525e-02,	1.1101e-02,	0.0000e+00,	0,	1460043938994058309,	1067350262
-3.1241e-01,	-2.1040e-01,	1.0079e+01,	1.6574e-02,	-2.6048e-02,	1.1620e-02,	0.0000e+00,	0,	1460043938996590916,	1069882869
-3.1509e-01,	-2.3456e-01,	1.0065e+01,	8.6880e-03,	-2.5178e-02,	1.1795e-02,	0.0000e+00,	0,	1460043938999091190,	1072383143
-2.9744e-01,	-3.7377e-01,	1.0163e+01,	3.9906e-03,	-2.3094e-02,	1.1438e-02,	0.0000e+00,	0,	1460043939001557714,	1074849667
-2.7363e-01,	-4.4251e-01,	1.0212e+01,	5.3377e-03,	-1.9501e-02,	1.1251e-02,	0.0000e+00,	0,	1460043939004082113,	1077374066
-2.6516e-01,	-4.1224e-01,	1.0116e+01,	8.0088e-03,	-1.5448e-02,	1.1360e-02,	0.0000e+00,	0,	1460043939006600761,	1079892714
-3.0611e-01,	-2.9601e-01,	9.9644e+00,	5.6896e-03,	-1.2713e-02,	1.1303e-02,	0.0000e+00,	0,	1460043939009065244,	1082357197
-3.5237e-01,	-2.0732e-01,	9.9127e+00,	-1.9224e-03,	-1.3316e-02,	9.2883e-03,	0.0000e+00,	0,	1460043939011575559,	1084867512
-3.1866e-01,	-2.2923e-01,	9.9937e+00,	-1.0560e-02,	-1.4373e-02,	7.1131e-03,	0.0000e+00,	0,	1460043939014073916,	1087365869
-2.5482e-01,	-3.2886e-01,	1.0092e+01,	-1.4066e-02,	-1.1502e-02,	5.9507e-03,	0.0000e+00,	0,	1460043939016568774,	1089860727
-2.2411e-01,	-4.3750e-01,	1.0084e+01,	-1.1937e-02,	-5.6493e-03,	4.8743e-03,	0.0000e+00,	0,	1460043939019083256,	1092375209
-2.4041e-01,	-4.4813e-01,	9.9790e+00,	-6.7951e-03,	6.3347e-04,	5.2506e-03,	0.0000e+00,	0,	1460043939021580113,	1094872066
-2.8307e-01,	-3.8128e-01,	9.8788e+00,	-3.8223e-03,	5.7800e-03,	5.4340e-03,	0.0000e+00,	0,	1460043939024033637,	1097325590
-3.3095e-01,	-2.7556e-01,	9.9012e+00,	-6.2340e-03,	7.9654e-03,	4.0729e-03,	0.0000e+00,	0,	1460043939026576577,	1099868530
-3.5270e-01,	-1.8483e-01,	1.0018e+01,	-1.3132e-02,	5.8944e-03,	2.3908e-03,	0.0000e+00,	0,	1460043939029071851,	1102363804
-3.0846e-01,	-2.2158e-01,	1.0084e+01,	-1.9429e-02,	3.6552e-03,	8.1704e-04,	0.0000e+00,	0,	1460043939031533000,	1104824953
-2.5053e-01,	-3.6281e-01,	1.0042e+01,	-2.1031e-02,	6.4130e-03,	-4.9998e-04,	0.0000e+00,	0,	1460043939034074857,	1107366810
-2.4612e-01,	-4.6131e-01,	9.9551e+00,	-1.7575e-02,	1.1919e-02,	-9.7060e-04,	0.0000e+00,	0,	1460043939036531881,	1109823834
-2.8036e-01,	-4.1074e-01,	9.9395e+00,	-1.3906e-02,	1.6553e-02,	-1.1582e-03,	0.0000e+00,	0,	1460043939039042197,	1112334150
-3.2830e-01,	-2.9103e-01,	1.0028e+01,	-1.5045e-02,	1.8319e-02,	-2.6514e-03,	0.0000e+00,	0,	1460043939041549845,	1114841798
-3.6563e-01,	-2.2004e-01,	1.0121e+01,	-2.1157e-02,	1.6345e-02,	-5.2376e-03,	0.0000e+00,	0,	1460043939044033203,	1117325156
-4.1416e-01,	-2.6487e-01,	1.0173e+01,	-2.5583e-02,	1.1198e-02,	-6.2326e-03,	0.0000e+00,	0,	1460043939046535477,	1119827430
-4.5078e-01,	-4.4221e-01,	1.0250e+01,	-2.2062e-02,	2.8296e-03,	-6.4659e-03,	0.0000e+00,	0,	1460043939049083208,	1122375161
-4.2796e-01,	-5.7802e-01,	1.0344e+01,	-1.0371e-02,	-6.2114e-03,	-6.0238e-03,	0.0000e+00,	0,	1460043939051542066,	1124834019
-3.6563e-01,	-5.4161e-01,	1.0368e+01,	2.1438e-03,	-1.3004e-02,	-7.2280e-03,	0.0000e+00,	0,	1460043939054035715,	1127327668
-3.3017e-01,	-3.8676e-01,	1.0244e+01,	8.4224e-03,	-1.6169e-02,	-9.2749e-03,	0.0000e+00,	0,	1460043939056552197,	1129844150
-3.2634e-01,	-2.3994e-01,	1.0010e+01,	6.1721e-03,	-1.6717e-02,	-1.0313e-02,	1.3484e-01,	1,	1460043939059053096,	1132345049
-3.1293e-01,	-2.0560e-01,	9.8218e+00,	-5.8030e-04,	-1.6338e-02,	-1.0651e-02,	0.0000e+00,	0,	1460043939061534078,	1134826031
-2.9923e-01,	-3.0067e-01,	9.8085e+00,	-4.7763e-03,	-1.5276e-02,	-9.0560e-03,	0.0000e+00,	0,	1460043939064048727,	1137340680
-2.9100e-01,	-4.3181e-01,	9.9350e+00,	-2.9249e-03,	-1.2356e-02,	-7.3045e-03,	0.0000e+00,	0,	1460043939066552917,	1139844870
-2.7584e-01,	-4.6910e-01,	1.0019e+01,	3.8157e-03,	-7.2032e-03,	-7.0760e-03,	1.3484e-01,	1,	1460043939069041733,	1142333686
-2.8584e-01,	-3.7047e-01,	9.9533e+00,	7.5429e-03,	-2.7593e-03,	-8.4466e-03,	0.0000e+00,	0,	1460043939071543590,	1144835543
-3.2789e-01,	-2.2724e-01,	9.8317e+00,	2.5873e-03,	-2.1468e-03,	-8.4030e-03,	0.0000e+00,	0,	1460043939074052572,	1147344525
-3.4802e-01,	-1.8524e-01,	9.8087e+00,	-8.2259e-03,	-4.5245e-03,	-6.6172e-03,	0.0000e+00,	0,	1460043939076539429,	1149831382
-3.1087e-01,	-2.8795e-01,	9.9040e+00,	-1.6854e-02,	-6.0920e-03,	-5.0195e-03,	0.0000e+00,	0,	1460043939079042578,	1152334531
-2.4445e-01,	-4.2933e-01,	1.0012e+01,	-1.6726e-02,	-2.7719e-03,	-5.1869e-03,	0.0000e+00,	0,	1460043939081557519,	1154849472
-2.2790e-01,	-4.7411e-01,	1.0053e+01,	-1.0933e-02,	3.6187e-03,	-5.6892e-03,	0.0000e+00,	0,	1460043939084045751,	1157337704
-2.9635e-01,	-4.0132e-01,	1.0033e+01,	-6.3377e-03,	7.7607e-03,	-3.9325e-03,	0.0000e+00,	0,	1460043939086535400,	1159827353
-3.8395e-01,	-3.3921e-01,	1.0045e+01,	-4.9100e-03,	6.3385e-03,	-1.4811e-03,	0.0000e+00,	0,	1460043939089065715,	1162357668
-4.2871e-01,	-3.3934e-01,	1.0154e+01,	-6.9547e-03,	-2.0358e-04,	8.6472e-04,	0.0000e+00,	0,	1460043939091558572,	1164850525
-4.0647e-01,	-3.7303e-01,	1.0307e+01,	-8.9589e-03,	-7.9423e-03,	2.5487e-03,	0.0000e+00,	0,	1460043939094034013,	1167325966
-3.6786e-01,	-4.3181e-01,	1.0395e+01,	-7.7560e-03,	-1.4153e-02,	3.5055e-03,	0.0000e+00,	0,	1460043939096556870,	1169848823
-3.5198e-01,	-4.5887e-01,	1.0327e+01,	-2.7296e-03,	-1.7928e-02,	5.0930e-03,	0.0000e+00,	0,	1460043939099084102,	1172376055
-3.3629e-01,	-4.2285e-01,	1.0142e+01,	2.9430e-03,	-1.8285e-02,	7.8300e-03,	0.0000e+00,	0,	1460043939101542751,	1174834704
-3.0551e-01,	-3.2797e-01,	9.9760e+00,	3.3347e-03,	-1.5269e-02,	1.1028e-02,	0.0000e+00,	0,	1460043939104056650,	1177348603
-2.9139e-01,	-2.5756e-01,	9.9407e+00,	-2.1924e-03,	-1.2846e-02,	1.4329e-02,	0.0000e+00,	0,	1460043939106562507,	1179854460
-3.0872e-01,	-2.8785e-01,	1.0002e+01,	-7.3260e-03,	-1.2840e-02,	1.5563e-02,	0.0000e+00,	0,	1460043939109044656,	1182336609
-2.9227e-01,	-3.5545e-01,	1.0046e+01,	-8.0935e-03,	-1.2069e-02,	1.4810e-02,	0.0000e+00,	0,	1460043939111564180,	1184856133
-2.5795e-01,	-3.7948e-01,	1.0005e+01,	-5.8524e-03,	-8.8741e-03,	1.4390e-02,	0.0000e+00,	0,	1460043939114056620,	1187348573
-2.6419e-01,	-3.5704e-01,	9.9117e+00,	-5.3164e-03,	-4.4803e-03,	1.4317e-02,	0.0000e+00,	0,	1460043939116533478,	1189825431
-3.1087e-01,	-3.3001e-01,	9.8565e+00,	-7.0470e-03,	-1.4814e-03,	1.4009e-02,	0.0000e+00,	0,	1460043939119057501,	1192349454
-3.2555e-01,	-3.1347e-01,	9.8682e+00,	-9.1405e-03,	-8.1975e-04,	1.2979e-02,	0.0000e+00,	0,	1460043939121556733,	1194848686
-3.1001e-01,	-3.0371e-01,	9.9241e+00,	-1.1654e-02,	-4.5321e-04,	1.2627e-02,	0.0000e+00,	0,	1460043939124034341,	1197326294
-3.0889e-01,	-3.1118e-01,	9.9639e+00,	-1.4027e-02,	4.1321e-04,	1.3735e-02,	0.0000e+00,	0,	1460043939126558989,	1199850942
-3.1733e-01,	-3.2228e-01,	9.9654e+00,	-1.5258e-02,	2.0634e-03,	1.4238e-02,	0.0000e+00,	0,	1460043939129043888,	1202335841
-3.0849e-01,	-3.1401e-01,	9.9558e+00,	-1.4790e-02,	4.4222e-03,	1.2951e-02,	0.0000e+00,	0,	1460043939131546787,	1204838740
-3.1257e-01,	-3.2753e-01,	9.9852e+00,	-1.2569e-02,	6.1605e-03,	1.1939e-02,	0.0000e+00,	0,	1460043939134063728,	1207355681
-3.6129e-01,	-3.9340e-01,	1.0070e+01,	-9.9202e-03,	4.8845e-03,	1.2093e-02,	0.0000e+00,	0,	1460043939136543043,	1209834996
-4.2661e-01,	-4.3358e-01,	1.0175e+01,	-7.4015e-03,	-8.0348e-04,	1.0679e-02,	0.0000e+00,	0,	1460043939139047650,	1212339603
-4.5260e-01,	-4.1353e-01,	1.0254e+01,	-4.1342e-03,	-7.4225e-03,	8.1959e-03,	0.0000e+00,	0,	1460043939141577632,	1214869585
-4.2667e-01,	-3.6823e-01,	1.0241e+01,	-4.0583e-04,	-1.2556e-02,	7.0447e-03,	0.0000e+00,	0,	1460043939144057365,	1217349318
-3.7048e-01,	-3.3841e-01,	1.0144e+01,	2.6700e-03,	-1.5181e-02,	6.8634e-03,	0.0000e+00,	0,	1460043939146552889,	1219844842
-3.2487e-01,	-3.2884e-01,	1.0036e+01,	3.3319e-03,	-1.5291e-02,	6.0961e-03,	0.0000e+00,	0,	1460043939149074537,	1222366490
-2.9364e-01,	-3.2033e-01,	9.9605e+00,	1.7467e-03,	-1.4053e-02,	4.2711e-03,	1.3480e-01,	1,	1460043939151573894,	1224865847
-2.9288e-01,	-3.2189e-01,	9.9578e+00,	-5.6713e-04,	-1.2439e-02,	2.5903e-03,	0.0000e+00,	0,	1460043939154056502,	1227348455
-3.1982e-01,	-3.3525e-01,	1.0010e+01,	-1.9317e-03,	-1.0651e-02,	1.6872e-03,	0.0000e+00,	0,	1460043939156580025,	1229871978
-3.3767e-01,	-3.1593e-01,	1.0054e+01,	-1.6185e-03,	-8.5050e-03,	2.0113e-03,	0.0000e+00,	0,	1460043939159078049,	1232370002
-3.2760e-01,	-2.5888e-01,	1.0066e+01,	-1.9832e-03,	-5.3594e-03,	1.6067e-03,	1.3480e-01,	1,	1460043939161569365,	1234861318
-3.1411e-01,	-2.3900e-01,	1.0056e+01,	-4.1101e-03,	-2.6040e-03,	5.0504e-04,	0.0000e+00,	0,	1460043939164079597,	1237371550
-3.1056e-01,	-2.8594e-01,	1.0062e+01,	-7.4229e-03,	-9.7364e-04,	4.3432e-04,	0.0000e+00,	0,	1460043939166586829,	1239878782
-2.9865e-01,	-3.4499e-01,	1.0086e+01,	-1.0445e-02,	-4.6139e-04,	8.7672e-04,	0.0000e+00,	0,	1460043939169063520,	1242355473
-2.9696e-01,	-3.6417e-01,	1.0113e+01,	-1.1603e-02,	6.5486e-04,	5.2233e-04,	0.0000e+00,	0,	1460043939171577085,	1244869038
-3.2979e-01,	-3.7542e-01,	1.0128e+01,	-1.0465e-02,	2.7460e-03,	2.1241e-04,	0.0000e+00,	0,	1460043939174091151,	1247383104
-3.5987e-01,	-3.7929e-01,	1.0120e+01,	-8.1118e-03,	2.8631e-03,	-7.0415e-04,	0.0000e+00,	0,	1460043939176574216,	1249866169
-3.4560e-01,	-3.4371e-01,	1.0094e+01,	-7.0639e-03,	3.1444e-04,	-1.0692e-03,	0.0000e+00,	0,	1460043939179061698,	1252353651
-3.3021e-01,	-3.2024e-01,	1.0055e+01,	-7.8188e-03,	-2.2930e-03,	1.6310e-04,	0.0000e+00,	0,	1460043939181590514,	1254882467
-3.4719e-01,	-3.4848e-01,	1.0005e+01,	-8.8215e-03,	-3.0059e-03,	1.7683e-03,	0.0000e+00,	0,	1460043939184088663,	1257380616
-3.4821e-01,	-3.8088e-01,	9.9507e+00,	-8.7501e-03,	-3.1222e-03,	1.3892e-03,	0.0000e+00,	0,	1460043939186561562,	1259853515
-3.2403e-01,	-3.8558e-01,	9.9144e+00,	-8.5890e-03,	-2.7381e-03,	-7.1103e-04,	0.0000e+00,	0,	1460043939189084794,	1262376747
-3.2212e-01,	-3.7863e-01,	9.9116e+00,	-9.1044e-03,	-1.7155e-03,	-1.2769e-03,	0.0000e+00,	0,	1460043939191603484,	1264895437
-3.4795e-01,	-3.7654e-01,	9.9227e+00,	-9.1771e-03,	-1.1478e-03,	-1.0015e-03,	0.0000e+00,	0,	1460043939194068341,	1267360294
-3.6204e-01,	-3.6981e-01,	9.9558e+00,	-7.9626e-03,	-1.7313e-03,	-1.0029e-03,	0.0000e+00,	0,	1460043939196585115,	1269877068
-3.5342e-01,	-3.6555e-01,	9.9909e+00,	-6.0859e-03,	-4.2389e-03,	-1.1503e-03,	0.0000e+00,	0,	1460043939199090014,	1272381967
-3.4659e-01,	-3.9786e-01,	1.0010e+01,	-3.8015e-03,	-8.1396e-03,	-1.3091e-03,	0.0000e+00,	0,	1460043939201572871,	1274864824
-3.5237e-01,	-4.2610e-01,	1.0020e+01,	-1.3562e-03,	-1.1330e-02,	-4.9612e-04,	0.0000e+00,	0,	1460043939204093478,	1277385431
-3.4892e-01,	-4.1072e-01,	1.0017e+01,	6.0819e-04,	-1.2337e-02,	1.9783e-04,	0.0000e+00,	0,	1460043939206591544,	1279883497
-3.3175e-01,	-3.8614e-01,	1.0011e+01,	1.2726e-03,	-1.1562e-02,	1.9090e-04,	0.0000e+00,	0,	1460043939209036943,	1282328896
-3.1568e-01,	-3.6654e-01,	1.0003e+01,	6.1635e-04,	-1.0546e-02,	6.2517e-04,	0.0000e+00,	0,	1460043939211580508,	1284872461
-3.1237e-01,	-3.6755e-01,	1.0014e+01,	-5.9982e-04,	-1.0096e-02,	1.2467e-03,	0.0000e+00,	0,	1460043939214092032,	1287383985
-3.1542e-01,	-3.8863e-01,	1.0043e+01,	-1.7957e-03,	-1.0048e-02,	2.1452e-03,	0.0000e+00,	0,	1460043939216536390,	1289828343
-3.1847e-01,	-3.9522e-01,	1.0067e+01,	-2.4751e-03,	-8.7207e-03,	4.0286e-03,	0.0000e+00,	0,	1460043939219079038,	1292370991
-3.1663e-01,	-3.8397e-01,	1.0100e+01,	-2.7467e-03,	-5.8727e-03,	5.9583e-03,	0.0000e+00,	0,	1460043939221544187,	1294836140
-3.2302e-01,	-3.7667e-01,	1.0127e+01,	-3.2619e-03,	-4.6484e-03,	7.1253e-03,	0.0000e+00,	0,	1460043939224044003,	1297335956
-3.3023e-01,	-3.6713e-01,	1.0139e+01,	-4.6444e-03,	-5.7292e-03,	7.5776e-03,	0.0000e+00,	0,	1460043939226554235,	1299846188
-3.2831e-01,	-3.5287e-01,	1.0135e+01,	-6.0320e-03,	-6.9559e-03,	8.0683e-03,	0.0000e+00,	0,	1460043939229036675,	1302328628
-3.1843e-01,	-3.6142e-01,	1.0122e+01,	-6.5378e-03,	-6.7009e-03,	8.3151e-03,	0.0000e+00,	0,	1460043939231538074,	1304830027
-3.1797e-01,	-3.8872e-01,	1.0104e+01,	-6.9113e-03,	-5.3553e-03,	8.7143e-03,	0.0000e+00,	0,	1460043939234088639,	1307380592
-3.2570e-01,	-3.8935e-01,	1.0065e+01,	-7.6226e-03,	-3.6827e-03,	9.8494e-03,	0.0000e+00,	0,	1460043939236537789,	1309829742
-3.3339e-01,	-3.6090e-01,	1.0033e+01,	-9.0339e-03,	-1.9233e-03,	1.0910e-02,	0.0000e+00,	0,	1460043939239040562,	1312332515
-3.3578e-01,	-3.3193e-01,	1.0011e+01,	-1.1285e-02,	3.7911e-04,	1.1986e-02,	0.0000e+00,	0,	1460043939241554795,	1314846748
-3.3210e-01,	-3.3028e-01,	9.9840e+00,	-1.2343e-02,	2.7505e-03,	1.3461e-02,	1.3478e-01,	1,	1460043939244052693,	1317344646
-3.3550e-01,	-3.5122e-01,	9.9603e+00,	-1.1436e-02,	3.8448e-03,	1.3222e-02,	0.0000e+00,	0,	1460043939246540676,	1319832629
-3.5181e-01,	-3.7513e-01,	9.9565e+00,	-9.7455e-03,	2.5663e-03,	1.1053e-02,	0.0000e+00,	0,	1460043939249055533,	1322347486
-3.5659e-01,	-3.9127e-01,	9.9887e+00,	-7.9378e-03,	3.9568e-04,	8.9840e-03,	0.0000e+00,	0,	1460043939251552515,	1324844468
-3.4858e-01,	-3.9469e-01,	1.0019e+01,	-6.4824e-03,	-1.5262e-03,	8.8620e-03,	1.3485e-01,	1,	1460043939254050830,	1327342783
-3.4700e-01,	-3.8631e-01,	1.0022e+01,	-5.3440e-03,	-4.1644e-03,	1.0511e-02,	0.0000e+00,	0,	1460043939256555854,	1329847807
-3.5209e-01,	-3.7739e-01,	1.0012e+01,	-4.4966e-03,	-7.9280e-03,	1.0903e-02,	0.0000e+00,	0,	1460043939259057920,	1332349873
-3.4798e-01,	-3.6739e-01,	9.9912e+00,	-3.8975e-03,	-1.1485e-02,	9.5402e-03,	0.0000e+00,	0,	1460043939261538694,	1334830647
-3.2726e-01,	-3.5816e-01,	9.9728e+00,	-3.0327e-03,	-1.3157e-02,	8.3637e-03,	0.0000e+00,	0,	1460043939264052634,	1337344587
-3.0845e-01,	-3.5380e-01,	9.9669e+00,	-2.4428e-03,	-1.2931e-02,	7.6411e-03,	0.0000e+00,	0,	1460043939266562991,	1339854944
-3.0531e-01,	-3.5207e-01,	9.9615e+00,	-2.6986e-03,	-1.1154e-02,	6.3576e-03,	0.0000e+00,	0,	1460043939269044932,	1342336885
-3.1296e-01,	-3.4414e-01,	9.9565e+00,	-3.9541e-03,	-8.7089e-03,	4.5596e-03,	0.0000e+00,	0,	1460043939271542831,	1344834784
-3.2250e-01,	-3.4321e-01,	9.9601e+00,	-5.8315e-03,	-6.5930e-03,	2.9345e-03,	0.0000e+00,	0,	1460043939274070271,	1347362224
-3.3502e-01,	-3.5491e-01,	9.9890e+00,	-5.7856e-03,	-5.4926e-03,	1.2983e-03,	0.0000e+00,	0,	1460043939276558628,	1349850581
-3.5431e-01,	-3.7246e-01,	1.0024e+01,	-3.2987e-03,	-6.1307e-03,	4.7568e-04,	0.0000e+00,	0,	1460043939279037902,	1352329855
-3.6701e-01,	-3.8056e-01,	1.0069e+01,	-9.0299e-04,	-7.0648e-03,	-1.3601e-04,	0.0000e+00,	0,	1460043939281556759,	1354848712
-3.5886e-01,	-3.6338e-01,	1.0113e+01,	-6.2523e-04,	-7.0352e-03,	-1.2667e-03,	0.0000e+00,	0,	1460043939284068866,	1357360819
-3.4395e-01,	-3.4690e-01,	1.0148e+01,	-1.7624e-03,	-7.5765e-03,	-2.2077e-03,	0.0000e+00,	0,	1460043939286546224,	1359838177
-3.4049e-01,	-3.5665e-01,	1.0149e+01,	-2.0676e-03,	-9.3401e-03,	-1.9081e-03,	0.0000e+00,	0,	1460043939289060831,	1362352784
-3.2321e-01,	-3.6729e-01,	1.0124e+01,	-2.1590e-03,	-1.0156e-02,	-1.2227e-04,	0.0000e+00,	0,	1460043939291572730,	1364864683
-2.9362e-01,	-3.6883e-01,	1.0109e+01,	-3.2492e-03,	-8.7929e-03,	1.2471e-03,	0.0000e+00,	0,	1460043939294049629,	1367341582
-2.7880e-01,	-3.6625e-01,	1.0104e+01,	-4.3793e-03,	-5.9809e-03,	1.7688e-03,	0.0000e+00,	0,	1460043939296569319,	1369861272
-2.8400e-01,	-3.5602e-01,	1.0096e+01,	-4.9776e-03,	-3.9302e-03,	2.3273e-03,	0.0000e+00,	0,	1460043939299072259,	1372364212
-3.0195e-01,	-3.4050e-01,	1.0083e+01,	-5.6970e-03,	-2.4803e-03,	2.1333e-03,	0.0000e+00,	0,	1460043939301539075,	1374831028
-3.2770e-01,	-3.3163e-01,	1.0081e+01,	-6.6726e-03,	-1.4178e-03,	8.7521e-04,	0.0000e+00,	0,	1460043939304060932,	1377352885
-3.4148e-01,	-3.4216e-01,	1.0089e+01,	-7.6708e-03,	-1.5122e-03,	6.2710e-04,	0.0000e+00,	0,	1460043939306567998,	1379859951
-3.3481e-01,	-3.6893e-01,	1.0090e+01,	-9.3773e-03,	-2.3084e-03,	1.8992e-03,	0.0000e+00,	0,	1460043939309040147,	1382332100
-3.3023e-01,	-3.9125e-01,	1.0076e+01,	-1.0807e-02,	-2.8950e-03,	2.2975e-03,	0.0000e+00,	0,	1460043939311564004,	1384855957
-3.3104e-01,	-3.9395e-01,	1.0051e+01,	-1.0172e-02,	-3.2653e-03,	1.2661e-03,	0.0000e+00,	0,	1460043939314056861,	1387348814
-3.2573e-01,	-3.7226e-01,	1.0020e+01,	-8.9644e-03,	-3.2502e-03,	3.7722e-04,	0.0000e+00,	0,	1460043939316553093,	1389845046
-3.2004e-01,	-3.5448e-01,	9.9839e+00,	-8.7984e-03,	-2.7024e-03,	-1.1469e-03,	0.0000e+00,	0,	1460043939319068575,	1392360528
-3.1600e-01,	-3.5119e-01,	9.9519e+00,	-8.6386e-03,	-1.6667e-03,	-1.5783e-03,	0.0000e+00,	0,	1460043939321555141,	1394847094
-3.2100e-01,	-3.5112e-01,	9.9383e+00,	-7.5001e-03,	-2.1770e-03,	-5.8546e-04,	0.0000e+00,	0,	1460043939324051581,	1397343534
-3.2851e-01,	-3.5007e-01,	9.9364e+00,	-6.9457e-03,	-3.5866e-03,	1.8503e-04,	0.0000e+00,	0,	1460043939326582605,	1399874558
-3.2493e-01,	-3.5497e-01,	9.9441e+00,	-7.4445e-03,	-3.6583e-03,	2.9636e-04,	0.0000e+00,	0,	1460043939329053462,	1402345415
-3.3016e-01,	-3.6520e-01,	9.9504e+00,	-6.7381e-03,	-3.4686e-03,	8.0992e-04,	0.0000e+00,	0,	1460043939331559319,	1404851272
-3.4485e-01,	-3.7664e-01,	9.9636e+00,	-5.4123e-03,	-4.5591e-03,	6.7048e-04,	0.0000e+00,	0,	1460043939334079510,	1407371463
-3.5481e-01,	-3.8739e-01,	9.9868e+00,	-4.6793e-03,	-7.5314e-03,	7.9060e-04,	1.3473e-01,	1,	1460043939336574867,	1409866820
-3.5618e-01,	-3.9092e-01,	1.0005e+01,	-3.7165e-03,	-1.1301e-02,	8.5992e-04,	0.0000e+00,	0,	1460043939339062391,	1412354344
-3.5439e-01,	-3.8382e-01,	1.0032e+01,	-2.5671e-03,	-1.4180e-02,	-1.6885e-04,	0.0000e+00,	0,	1460043939341584873,	1414876826
-3.4580e-01,	-3.6683e-01,	1.0048e+01,	-8.5072e-04,	-1.5396e-02,	-1.0346e-03,	0.0000e+00,	0,	1460043939344079355,	1417371308
-3.2835e-01,	-3.5475e-01,	1.0049e+01,	2.6539e-04,	-1.4620e-02,	-1.1794e-03,	1.3485e-01,	1,	1460043939346576462,	1419868415
-3.0903e-01,	-3.4802e-01,	1.0049e+01,	2.4446e-04,	-1.2223e-02,	-6.6621e-04,	0.0000e+00,	0,	1460043939349088778,	1422380731
-2.9890e-01,	-3.4521e-01,	1.0069e+01,	-1.0681e-03,	-1.0013e-02,	-1.0513e-03,	0.0000e+00,	0,	1460043939351586968,	1424878921
-2.9615e-01,	-3.4573e-01,	1.0093e+01,	-3.0227e-03,	-8.8615e-03,	-9.2778e-04,	0.0000e+00,	0,	1460043939354064826,	1427356779
-3.0266e-01,	-3.4685e-01,	1.0097e+01,	-4.3772e-03,	-7.5697e-03,	1.8694e-03,	0.0000e+00,	0,	1460043939356590099,	1429882052
-3.0730e-01,	-3.4955e-01,	1.0089e+01,	-5.3101e-03,	-5.3849e-03,	4.3653e-03,	0.0000e+00,	0,	1460043939359099206,	1432391159
-3.1148e-01,	-3.6106e-01,	1.0079e+01,	-5.5930e-03,	-3.3343e-03,	3.9667e-03,	0.0000e+00,	0,	1460043939361566231,	1434858184
-3.1274e-01,	-3.7313e-01,	1.0070e+01,	-5.0842e-03,	-2.4664e-03,	2.4402e-03,	0.0000e+00,	0,	1460043939364078046,	1437369999
-3.1408e-01,	-3.5863e-01,	1.0072e+01,	-5.6797e-03,	-2.5065e-03,	1.2075e-03,	0.0000e+00,	0,	1460043939366604820,	1439896773
-3.2826e-01,	-3.3781e-01,	1.0089e+01,	-6.4238e-03,	-2.8640e-03,	8.3345e-04,	0.0000e+00,	0,	1460043939369079219,	1442371172
-3.4086e-01,	-3.2966e-01,	1.0104e+01,	-6.5962e-03,	-3.6253e-03,	9.5562e-04,	0.0000e+00,	0,	1460043939371572076,	1444864029
-3.2745e-01,	-3.3940e-01,	1.0077e+01,	-6.1989e-03,	-3.4460e-03,	1.4562e-03,	0.0000e+00,	0,	1460043939374089225,	1447381178
-3.0702e-01,	-3.5853e-01,	1.0035e+01,	-6.6877e-03,	-3.0501e-03,	2.0012e-03,	0.0000e+00,	0,	1460043939376594665,	1449886618
-2.9349e-01,	-3.7593e-01,	1.0023e+01,	-8.2368e-03,	-3.2706e-03,	3.1678e-03,	0.0000e+00,	0,	1460043939379073897,	1452365850
-2.9475e-01,	-3.7902e-01,	1.0023e+01,	-9.7540e-03,	-3.5379e-03,	4.5044e-03,	0.0000e+00,	0,	1460043939381589046,	1454880999
-3.0894e-01,	-3.6351e-01,	1.0002e+01,	-9.6359e-03,	-3.5036e-03,	4.6380e-03,	0.0000e+00,	0,	1460043939384090237,	1457382190
-3.2496e-01,	-3.4751e-01,	9.9802e+00,	-8.6051e-03,	-3.6041e-03,	3.9840e-03,	0.0000e+00,	0,	1460043939386576552,	1459868505
-3.3846e-01,	-3.4358e-01,	9.9848e+00,	-8.1420e-03,	-3.7942e-03,	3.1861e-03,	0.0000e+00,	0,	1460043939389094618,	1462386571
-3.5175e-01,	-3.5070e-01,	1.0006e+01,	-7.0364e-03,	-3.9131e-03,	2.9483e-03,	0.0000e+00,	0,	1460043939391593850,	1464885803
-3.4527e-01,	-3.5720e-01,	1.0016e+01,	-5.9828e-03,	-3.1580e-03,	4.1141e-03,	0.0000e+00,	0,	1460043939394041624,	1467333577
-3.2996e-01,	-3.5057e-01,	1.0010e+01,	-5.5791e-03,	-3.4839e-03,	4.6175e-03,	0.0000e+00,	0,	1460043939396589189,	1469881142
-3.2073e-01,	-3.3797e-01,	1.0002e+01,	-5.2816e-03,	-5.2102e-03,	3.6811e-03,	0.0000e+00,	0,	1460043939399100171,	1472392124
-3.2606e-01,	-3.3111e-01,	1.0000e+01,	-4.4241e-03,	-7.7705e-03,	3.5271e-03,	0.0000e+00,	0,	1460043939401541779,	1474833732
-3.2999e-01,	-3.2993e-01,	1.0003e+01,	-3.1949e-03,	-8.7363e-03,	4.1567e-03,	0.0000e+00,	0,	1460043939404089886,	1477381839
-3.2631e-01,	-3.3623e-01,	9.9980e+00,	-2.8295e-03,	-7.9439e-03,	3.6204e-03,	0.0000e+00,	0,	1460043939406589701,	1479881654
-3.2505e-01,	-3.4227e-01,	1.0003e+01,	-3.8486e-03,	-7.6169e-03,	2.4909e-03,	0.0000e+00,	0,	1460043939409047184,	1482339137
-3.2175e-01,	-3.4066e-01,	1.0026e+01,	-5.1425e-03,	-8.0989e-03,	9.6216e-04,	0.0000e+00,	0,	1460043939411557957,	1484849910
-3.1536e-01,	-3.4317e-01,	1.0053e+01,	-5.3944e-03,	-8.3900e-03,	-3.5857e-04,	0.0000e+00,	0,	1460043939414047315,	1487339268
-3.1940e-01,	-3.5073e-01,	1.0062e+01,	-4.5854e-03,	-8.5481e-03,	7.5314e-05,	0.0000e+00,	0,	1460043939416541755,	1489833708
-3.2676e-01,	-3.5276e-01,	1.0058e+01,	-3.8353e-03,	-8.9098e-03,	2.0280e-03,	1.3482e-01,	1,	1460043939419064321,	1492356274
-3.2526e-01,	-3.5447e-01,	1.0065e+01,	-3.2239e-03,	-9.0586e-03,	3.5444e-03,	0.0000e+00,	0,	1460043939421541428,	1494833381
-3.1573e-01,	-3.5322e-01,	1.0083e+01,	-3.3413e-03,	-7.7624e-03,	3.6227e-03,	0.0000e+00,	0,	1460043939424041493,	1497333446
-3.1054e-01,	-3.4739e-01,	1.0112e+01,	-3.9691e-03,	-6.6950e-03,	1.7769e-03,	0.0000e+00,	0,	1460043939426559517,	1499851470
-3.1836e-01,	-3.5091e-01,	1.0133e+01,	-4.5310e-03,	-6.6028e-03,	5.6796e-04,	1.3481e-01,	1,	1460043939429049999,	1502341952
-3.2270e-01,	-3.5367e-01,	1.0129e+01,	-4.6020e-03,	-6.6739e-03,	1.0333e-03,	0.0000e+00,	0,	1460043939431543523,	1504835476
-3.2721e-01,	-3.4056e-01,	1.0107e+01,	-3.8623e-03,	-6.3767e-03,	3.6426e-03,	0.0000e+00,	0,	1460043939434059255,	1507351208
-3.3512e-01,	-3.2746e-01,	1.0083e+01,	-3.4536e-03,	-5.7692e-03,	7.2574e-03,	0.0000e+00,	0,	1460043939436550446,	1509842399
-3.3337e-01,	-3.3321e-01,	1.0062e+01,	-4.6875e-03,	-4.6922e-03,	8.5030e-03,	1.3476e-01,	1,	1460043939439052136,	1512344089
-3.2474e-01,	-3.4551e-01,	1.0061e+01,	-6.3528e-03,	-4.0510e-03,	5.8541e-03,	0.0000e+00,	0,	1460043939441559494,	1514851447
-3.2292e-01,	-3.5285e-01,	1.0067e+01,	-7.4634e-03,	-3.9774e-03,	3.6959e-03,	0.0000e+00,	0,	1460043939444054559,	1517346512
-3.1576e-01,	-3.5176e-01,	1.0062e+01,	-8.1328e-03,	-4.4932e-03,	4.3162e-03,	0.0000e+00,	0,	1460043939446541833,	1519833786
-2.9050e-01,	-3.4517e-01,	1.0042e+01,	-8.8864e-03,	-4.4525e-03,	6.6848e-03,	0.0000e+00,	0,	1460043939449067107,	1522359060
-2.7647e-01,	-3.3442e-01,	9.9982e+00,	-9.9506e-03,	-3.4421e-03,	7.7261e-03,	0.0000e+00,	0,	1460043939451568297,	1524860250
-2.9592e-01,	-3.2799e-01,	9.9685e+00,	-1.0147e-02,	-1.9204e-03,	7.2226e-03,	0.0000e+00,	0,	1460043939454043446,	1527335399
-3.2586e-01,	-3.3554e-01,	9.9636e+00,	-9.3235e-03,	-1.3620e-03,	6.9698e-03,	0.0000e+00,	0,	1460043939456554345,	1529846298
-3.3908e-01,	-3.5853e-01,	9.9738e+00,	-8.2762e-03,	-2.5412e-03,	6.8044e-03,	0.0000e+00,	0,	1460043939459074452,	1532366405
-3.3262e-01,	-3.7398e-01,	9.9946e+00,	-7.3332e-03,	-3.7204e-03,	5.9993e-03,	0.0000e+00,	0,	1460043939461556018,	1534847971
-3.2445e-01,	-3.6731e-01,	1.0009e+01,	-6.3117e-03,	-4.4542e-03,	5.0094e-03,	0.0000e+00,	0,	1460043939464047792,	1537339745
-3.2486e-01,	-3.5118e-01,	1.0011e+01,	-5.6822e-03,	-6.1128e-03,	4.3135e-03,	0.0000e+00,	0,	1460043939466559065,	1539851018
-3.2659e-01,	-3.3899e-01,	1.0008e+01,	-5.1611e-03,	-8.4017e-03,	3.8357e-03,	0.0000e+00,	0,	1460043939469070756,	1542362709
-3.2176e-01,	-3.3436e-01,	9.9929e+00,	-3.9435e-03,	-9.8129e-03,	2.5789e-03,	0.0000e+00,	0,	1460043939471550446,	1544842399
-3.1225e-01,	-3.3620e-01,	9.9901e+00,	-3.1314e-03,	-9.2888e-03,	5.3561e-04,	0.0000e+00,	0,	1460043939474060637,	1547352590
-3.0416e-01,	-3.4714e-01,	1.0012e+01,	-3.0801e-03,	-7.7510e-03,	2.3062e-04,	0.0000e+00,	0,	1460043939476560286,	1549852239
-3.0651e-01,	-3.5742e-01,	1.0042e+01,	-3.6193e-03,	-7.7119e-03,	6.9929e-04,	0.0000e+00,	0,	1460043939479042101,	1552334054
-3.2723e-01,	-3.5496e-01,	1.0056e+01,	-4.5986e-03,	-8.0114e-03,	4.4565e-04,	0.0000e+00,	0,	1460043939481567708,	1554859661
-3.4397e-01,	-3.4099e-01,	1.0035e+01,	-5.0028e-03,	-7.2464e-03,	-4.4592e-04,	0.0000e+00,	0,	1460043939484075899,	1557367852
-3.4307e-01,	-3.3486e-01,	1.0003e+01,	-4.8196e-03,	-6.1476e-03,	-1.5281e-03,	0.0000e+00,	0,	1460043939486544006,	1559835959
-3.3067e-01,	-3.4153e-01,	1.0004e+01,	-5.2343e-03,	-5.7432e-03,	-1.9742e-03,	0.0000e+00,	0,	1460043939489066197,	1562358150
-3.2624e-01,	-3.4597e-01,	1.0038e+01,	-5.4947e-03,	-6.0428e-03,	-3.9382e-04,	0.0000e+00,	0,	1460043939491584304,	1564876257
-3.3219e-01,	-3.3640e-01,	1.0068e+01,	-4.9651e-03,	-6.9069e-03,	1.0951e-03,	0.0000e+00,	0,	1460043939494044411,	1567336364
-3.2905e-01,	-3.2974e-01,	1.0079e+01,	-4.0094e-03,	-7.8866e-03,	8.3629e-04,	0.0000e+00,	0,	1460043939496570185,	1569862138
-3.2257e-01,	-3.3814e-01,	1.0087e+01,	-2.9188e-03,	-8.2308e-03,	7.7469e-04,	0.0000e+00,	0,	1460043939499071042,	1572362995
-3.2856e-01,	-3.4949e-01,	1.0089e+01,	-2.8445e-03,	-7.6313e-03,	1.4313e-03,	0.0000e+00,	0,	1460043939501558816,	1574850769
-3.3122e-01,	-3.5200e-01,	1.0085e+01,	-4.0261e-03,	-6.9379e-03,	1.7182e-03,	0.0000e+00,	0,	1460043939504075173,	1577367126
-3.2250e-01,	-3.5015e-01,	1.0087e+01,	-6.5244e-03,	-6.3128e-03,	1.7146e-03,	0.0000e+00,	0,	1460043939506567155,	1579859108
-3.2610e-01,	-3.5251e-01,	1.0077e+01,	-9.3435e-03,	-3.5758e-03,	2.7388e-03,	0.0000e+00,	0,	1460043939509055262,	1582347215
-3.4519e-01,	-3.6061e-01,	1.0054e+01,	-9.6530e-03,	-8.5864e-04,	4.0023e-03,	1.3474e-01,	1,	1460043939511587119,	1584879072
-3.5518e-01,	-3.6833e-01,	1.0041e+01,	-8.8262e-03,	2.4588e-04,	3.7304e-03,	0.0000e+00,	0,	1460043939514065018,	1587356971
-3.4157e-01,	-3.6145e-01,	1.0051e+01,	-8.8712e-03,	-4.0334e-04,	3.8841e-03,	0.0000e+00,	0,	1460043939516561834,	1589853787
-3.2342e-01,	-3.4851e-01,	1.0049e+01,	-8.8611e-03,	-1.7756e-03,	4.5102e-03,	0.0000e+00,	0,	1460043939519087482,	1592379435
-3.1922e-01,	-3.5148e-01,	1.0027e+01,	-8.4511e-03,	-3.2041e-03,	5.3489e-03,	1.3474e-01,	1,	1460043939521573673,	1594865626
-3.2819e-01,	-3.6978e-01,	1.0022e+01,	-8.0509e-03,	-3.8988e-03,	6.4273e-03,	0.0000e+00,	0,	1460043939524066739,	1597358692
-3.3794e-01,	-3.8542e-01,	1.0029e+01,	-7.4547e-03,	-3.4078e-03,	7.1036e-03,	0.0000e+00,	0,	1460043939526593221,	1599885174
-3.4364e-01,	-3.9296e-01,	1.0041e+01,	-6.2150e-03,	-2.7957e-03,	8.0479e-03,	0.0000e+00,	0,	1460043939529075911,	1602367864
-3.4497e-01,	-3.9110e-01,	1.0036e+01,	-4.9567e-03,	-3.5653e-03,	9.0298e-03,	1.3474e-01,	1,	1460043939531580935,	1604872888
-3.3881e-01,	-3.8707e-01,	1.0012e+01,	-4.2984e-03,	-4.6338e-03,	8.6140e-03,	0.0000e+00,	0,	1460043939534092792,	1607384745
-3.2967e-01,	-3.7455e-01,	9.9769e+00,	-4.6539e-03,	-5.9654e-03,	7.5591e-03,	0.0000e+00,	0,	1460043939536583483,	1609875436
-3.2670e-01,	-3.5845e-01,	9.9457e+00,	-5.3698e-03,	-8.1025e-03,	6.3177e-03,	0.0000e+00,	0,	1460043939539072340,	1612364293
-3.3096e-01,	-3.5683e-01,	9.9392e+00,	-4.6606e-03,	-8.8879e-03,	5.9282e-03,	0.0000e+00,	0,	1460043939541599114,	1614891067
-3.3391e-01,	-3.6504e-01,	9.9613e+00,	-3.9602e-03,	-7.3914e-03,	6.0091e-03,	0.0000e+00,	0,	1460043939544096929,	1617388882
-3.2159e-01,	-3.6349e-01,	9.9823e+00,	-4.3228e-03,	-6.4024e-03,	5.6454e-03,	0.0000e+00,	0,	1460043939546569328,	1619861281
-3.7446e-01,	-2.7451e-01,	9.8729e+00,	-5.0620e-03,	-9.4600e-03,	4.3759e-03,	0.0000e+00,	0,	1460043939549087560,	1622379513
-5.3937e-01,	8.0265e-04,	9.3575e+00,	-1.2714e-02,	-1.8239e-02,	5.7372e-03,	0.0000e+00,	0,	1460043939551611792,	1624903745
-6.2848e-01,	1.6982e-01,	8.7008e+00,	-2.4493e-02,	-3.1544e-02,	8.1352e-03,	0.0000e+00,	0,	1460043939554076691,	1627368644
-4.6187e-01,	-1.8134e-01,	8.5304e+00,	-2.3091e-02,	-4.0156e-02,	1.0653e-02,	0.0000e+00,	0,	1460043939556582007,	1629873960
-2.3836e-01,	-7.6744e-01,	9.0875e+00,	6.8022e-03,	-3.6898e-02,	1.3475e-02,	0.0000e+00,	0,	1460043939559093614,	1632385567
-2.5441e-01,	-1.0320e+00,	9.9779e+00,	5.6869e-02,	-3.0570e-02,	1.7710e-02,	0.0000e+00,	0,	1460043939561587346,	1634879299
-4.6829e-01,	-6.9426e-01,	1.0588e+01,	9.7511e-02,	-3.8016e-02,	2.2708e-02,	0.0000e+00,	0,	1460043939564083453,	1637375406
-6.6181e-01,	8.6796e-02,	1.0628e+01,	9.8813e-02,	-6.0669e-02,	2.9350e-02,	0.0000e+00,	0,	1460043939566593560,	1639885513
-7.0844e-01,	7.0696e-01,	1.0351e+01,	5.8411e-02,	-8.9008e-02,	3.8528e-02,	0.0000e+00,	0,	1460043939569082209,	1642374162
-4.7502e-01,	6.1421e-01,	1.0121e+01,	7.4052e-03,	-1.0711e-01,	4.9982e-02,	0.0000e+00,	0,	1460043939571544400,	1644836353
-2.9552e-02,	-1.3827e-01,	1.0144e+01,	-1.2903e-02,	-9.6903e-02,	6.4122e-02,	0.0000e+00,	0,	1460043939574100257,	1647392210
3.3146e-01,	-8.9931e-01,	1.0405e+01,	1.1140e-02,	-5.8615e-02,	7.9111e-02,	0.0000e+00,	0,	1460043939576597572,	1649889525
2.6787e-01,	-1.0391e+00,	1.0687e+01,	5.3494e-02,	-1.5023e-02,	9.3041e-02,	0.0000e+00,	0,	1460043939579044472,	1652336425
-1.2719e-01,	-3.9649e-01,	1.0781e+01,	7.2290e-02,	6.9308e-03,	1.0585e-01,	0.0000e+00,	0,	1460043939581594079,	1654886032
-5.0388e-01,	4.6194e-01,	1.0659e+01,	4.7934e-02,	-4.7318e-04,	1.1625e-01,	0.0000e+00,	0,	1460043939584105894,	1657397847
-6.4405e-01,	6.8967e-01,	1.0500e+01,	1.0532e-03,	-2.4777e-02,	1.2337e-01,	0.0000e+00,	0,	1460043939586547002,	1659838955
-5.2856e-01,	1.1089e-01,	1.0459e+01,	-2.8544e-02,	-4.5796e-02,	1.3118e-01,	0.0000e+00,	0,	1460043939589093275,	1662385228
-2.5043e-01,	-5.8893e-01,	1.0470e+01,	-1.8752e-02,	-5.0002e-02,	1.4015e-01,	0.0000e+00,	0,	1460043939591597966,	1664889919
-1.1388e-01,	-8.0759e-01,	1.0382e+01,	1.8091e-02,	-3.9913e-02,	1.4735e-01,	0.0000e+00,	0,	1460043939594052031,	1667343984
-3.2678e-01,	-5.5410e-01,	1.0159e+01,	5.2924e-02,	-3.2171e-02,	1.5126e-01,	0.0000e+00,	0,	1460043939596561472,	1669853425
-6.5379e-01,	-7.7608e-02,	9.9201e+00,	6.5336e-02,	-4.0237e-02,	1.5207e-01,	0.0000e+00,	0,	1460043939599065621,	1672357574
-7.9287e-01,	3.3543e-01,	9.8425e+00,	5.4707e-02,	-6.2062e-02,	1.4961e-01,	0.0000e+00,	0,	1460043939601547228,	1674839181
-7.1011e-01,	3.5718e-01,	9.9199e+00,	3.8377e-02,	-8.4241e-02,	1.4369e-01,	1.3482e-01,	1,	1460043939604067502,	1677359455
-5.6234e-01,	-5.7623e-02,	9.9826e+00,	3.6573e-02,	-9.5202e-02,	1.3512e-01,	0.0000e+00,	0,	1460043939606552401,	1679844354
-4.9219e-01,	-4.6269e-01,	9.9233e+00,	5.3415e-02,	-9.4480e-02,	1.2617e-01,	0.0000e+00,	0,	1460043939609044966,	1682336919
-5.6891e-01,	-4.7449e-01,	9.7758e+00,	7.6615e-02,	-8.8373e-02,	1.1633e-01,	0.0000e+00,	0,	1460043939611562615,	1684854568
-7.2089e-01,	-1.7409e-01,	9.7009e+00,	8.6043e-02,	-8.3447e-02,	1.0516e-01,	1.3482e-01,	1,	1460043939614053680,	1687345633
-6.3421e-01,	2.1732e-01,	9.8788e+00,	6.9318e-02,	-7.4008e-02,	9.3290e-02,	0.0000e+00,	0,	1460043939616547329,	1689839282
-4.3771e-01,	4.3111e-01,	1.0293e+01,	3.4007e-02,	-5.2385e-02,	7.8038e-02,	0.0000e+00,	0,	1460043939619062186,	1692354139
-3.4118e-01,	2.7038e-01,	1.0643e+01,	-2.9497e-03,	-1.9284e-02,	5.9827e-02,	0.0000e+00,	0,	1460043939621544544,	1694836497
-3.9416e-01,	-1.2564e-01,	1.0664e+01,	-2.6316e-02,	1.6762e-02,	3.9861e-02,	0.0000e+00,	0,	1460043939624051192,	1697343145
-6.3209e-01,	-4.2290e-01,	1.0306e+01,	-3.3524e-02,	3.9264e-02,	2.0326e-02,	0.0000e+00,	0,	1460043939626569675,	1699861628
-9.7173e-01,	-5.9104e-01,	9.7848e+00,	-2.9725e-02,	3.7435e-02,	5.6862e-03,	0.0000e+00,	0,	1460043939629053657,	1702345610
-1.1934e+00,	-7.4634e-01,	9.4639e+00,	-1.8655e-02,	1.3656e-02,	-6.3343e-03,	0.0000e+00,	0,	1460043939631548389,	1704840342
-1.2371e+00,	-8.5149e-01,	9.4414e+00,	-1.4406e-03,	-1.9157e-02,	-1.9312e-02,	0.0000e+00,	0,	1460043939634068538,	1707360491
-1.0252e+00,	-8.6662e-01,	9.6405e+00,	1.7065e-02,	-4.3589e-02,	-3.0998e-02,	0.0000e+00,	0,	1460043939636566812,	1709858765
-6.2459e-01,	-7.7454e-01,	9.9628e+00,	3.0965e-02,	-4.7875e-02,	-3.8675e-02,	0.0000e+00,	0,	1460043939639048336,	1712340289
-3.4072e-01,	-6.2219e-01,	1.0353e+01,	3.5470e-02,	-3.3338e-02,	-4.2109e-02,	0.0000e+00,	0,	1460043939641563818,	1714855771
-2.4699e-01,	-3.7780e-01,	1.0680e+01,	2.6166e-02,	-1.2765e-02,	-4.1465e-02,	0.0000e+00,	0,	1460043939644082716,	1717374669
-2.1671e-01,	-1.0991e-01,	1.0814e+01,	2.1862e-03,	2.7831e-03,	-3.7617e-02,	0.0000e+00,	0,	1460043939646553615,	1719845568
-1.5100e-01,	-3.7436e-02,	1.0759e+01,	-2.7321e-02,	1.0346e-02,	-3.2365e-02,	0.0000e+00,	0,	1460043939649058806,	1722350759
-1.4670e-01,	-2.6599e-01,	1.0530e+01,	-4.6136e-02,	1.0109e-02,	-2.6239e-02,	0.0000e+00,	0,	1460043939651563788,	1724855741
-2.1671e-01,	-6.2778e-01,	1.0157e+01,	-4.1056e-02,	2.0607e-03,	-1.8958e-02,	0.0000e+00,	0,	1460043939654062978,	1727354931
-2.4739e-01,	-8.3524e-01,	9.7535e+00,	-1.4074e-02,	-1.2155e-02,	-1.2631e-02,	0.0000e+00,	0,	1460043939656559961,	1729851914
-1.5756e-01,	-6.7702e-01,	9.5168e+00,	1.5854e-02,	-2.3782e-02,	-5.1729e-03,	0.0000e+00,	0,	1460043939659062860,	1732354813
-7.6208e-02,	-3.6346e-01,	9.5961e+00,	3.2406e-02,	-3.3264e-02,	7.5370e-04,	0.0000e+00,	0,	1460043939661558425,	1734850378
2.3877e-02,	-2.2951e-01,	9.8291e+00,	3.1147e-02,	-3.9735e-02,	6.4590e-03,	0.0000e+00,	0,	1460043939664046282,	1737338235
1.4168e-01,	-1.9821e-01,	9.9409e+00,	1.7823e-02,	-4.0793e-02,	1.3457e-02,	0.0000e+00,	0,	1460043939666572806,	1739864759
3.3526e-01,	-1.5763e-01,	9.8850e+00,	1.1808e-03,	-3.2699e-02,	2.0284e-02,	0.0000e+00,	0,	1460043939669065205,	1742357158
5.0077e-01,	-2.4551e-01,	9.8097e+00,	-1.1621e-02,	-1.3778e-02,	2.5858e-02,	0.0000e+00,	0,	1460043939671548145,	1744840098
4.2626e-01,	-4.1635e-01,	9.7337e+00,	-1.6157e-02,	4.0228e-03,	2.8325e-02,	0.0000e+00,	0,	1460043939674068586,	1747360539
2.1629e-01,	-5.2694e-01,	9.5805e+00,	-1.3173e-02,	9.5840e-03,	2.8209e-02,	0.0000e+00,	0,	1460043939676589193,	1749881146
1.5399e-01,	-5.2660e-01,	9.4605e+00,	-8.9065e-03,	5.8779e-03,	2.5762e-02,	0.0000e+00,	0,	1460043939679050300,	1752342253
1.8054e-01,	-4.4053e-01,	9.4461e+00,	-7.5948e-03,	2.3825e-03,	2.2210e-02,	0.0000e+00,	0,	1460043939681574699,	1754866652
2.0022e-01,	-3.7469e-01,	9.5484e+00,	-1.0724e-02,	2.7163e-03,	1.7891e-02,	0.0000e+00,	0,	1460043939684086848,	1757378801
2.1754e-01,	-3.8411e-01,	9.7296e+00,	-1.5261e-02,	4.2190e-03,	1.1218e-02,	0.0000e+00,	0,	1460043939686563747,	1759855700
2.8304e-01,	-4.0091e-01,	9.8909e+00,	-1.9386e-02,	9.1228e-03,	2.4169e-03,	0.0000e+00,	0,	1460043939689080437,	1762372390
3.1301e-01,	-3.5944e-01,	9.9977e+00,	-2.3979e-02,	1.9336e-02,	-8.5011e-03,	0.0000e+00,	0,	1460043939691582169,	1764874122
1.8142e-01,	-3.3984e-01,	1.0056e+01,	-2.8682e-02,	2.9068e-02,	-1.8760e-02,	0.0000e+00,	0,	1460043939694062235,	1767354188
4.3592e-02,	-3.8689e-01,	1.0091e+01,	-3.1121e-02,	3.2253e-02,	-2.7075e-02,	1.3478e-01,	1,	1460043939696592717,	1769884670
3.4217e-03,	-3.9358e-01,	1.0128e+01,	-3.1399e-02,	2.9843e-02,	-3.5193e-02,	0.0000e+00,	0,	1460043939699078824,	1772370777
-3.0087e-02,	-3.5900e-01,	1.0167e+01,	-2.9685e-02,	2.5317e-02,	-4.2606e-02,	0.0000e+00,	0,	1460043939701568681,	1774860634
-3.4481e-02,	-3.8570e-01,	1.0214e+01,	-2.4900e-02,	1.8571e-02,	-4.8529e-02,	0.0000e+00,	0,	1460043939704091580,	1777383533
1.4696e-02,	-4.0020e-01,	1.0269e+01,	-1.7522e-02,	1.3357e-02,	-5.2557e-02,	1.3476e-01,	1,	1460043939706584771,	1779876724
1.6085e-02,	-3.2230e-01,	1.0311e+01,	-1.0461e-02,	1.1019e-02,	-5.6308e-02,	0.0000e+00,	0,	1460043939709072878,	1782364831
-2.5306e-02,	-2.3352e-01,	1.0323e+01,	-5.5226e-03,	8.6752e-03,	-5.8585e-02,	0.0000e+00,	0,	1460043939711596318,	1784888271
-5.4701e-03,	-1.9105e-01,	1.0326e+01,	-3.9354e-03,	6.8772e-03,	-5.7911e-02,	0.0000e+00,	0,	1460043939714073676,	1787365629
2.9950e-02,	-1.6937e-01,	1.0340e+01,	-4.5089e-03,	6.9919e-03,	-5.5350e-02,	0.0000e+00,	0,	1460043939716582824,	1789874777
1.6573e-02,	-1.8456e-01,	1.0317e+01,	-5.3679e-03,	6.6050e-03,	-5.1122e-02,	0.0000e+00,	0,	1460043939719103848,	1792395801
-3.4265e-02,	-2.1103e-01,	1.0228e+01,	-6.6143e-03,	3.2467e-03,	-4.5135e-02,	0.0000e+00,	0,	1460043939721582747,	1794874700
-6.1808e-02,	-2.1116e-01,	1.0110e+01,	-8.0983e-03,	-1.2515e-03,	-3.8968e-02,	0.0000e+00,	0,	1460043939724076438,	1797368391
-5.5695e-02,	-2.2516e-01,	1.0038e+01,	-8.7628e-03,	-3.9591e-03,	-3.3904e-02,	0.0000e+00,	0,	1460043939726612211,	1799904164
-6.3714e-02,	-2.6108e-01,	1.0018e+01,	-8.3663e-03,	-3.8994e-03,	-3.0618e-02,	0.0000e+00,	0,	1460043939729094360,	1802386313
-1.3967e-01,	-2.5811e-01,	1.0003e+01,	-6.5645e-03,	-3.3650e-03,	-3.0186e-02,	0.0000e+00,	0,	1460043939731576718,	1804868671
-2.3639e-01,	-2.2310e-01,	9.9698e+00,	-3.7367e-03,	-4.1069e-03,	-3.1600e-02,	0.0000e+00,	0,	1460043939734097491,	1807389444
-3.0785e-01,	-1.9517e-01,	9.9561e+00,	-6.2458e-04,	-5.0216e-03,	-3.2987e-02,	0.0000e+00,	0,	1460043939736609765,	1809901718
-3.6224e-01,	-1.6501e-01,	9.9909e+00,	1.4115e-03,	-6.3623e-03,	-3.3907e-02,	0.0000e+00,	0,	1460043939739081206,	1812373159
-4.0477e-01,	-1.4748e-01,	1.0044e+01,	7.6058e-04,	-8.4998e-03,	-3.5344e-02,	0.0000e+00,	0,	1460043939741590646,	1814882599
-4.0874e-01,	-1.5076e-01,	1.0079e+01,	-2.5685e-03,	-8.6301e-03,	-3.7760e-02,	0.0000e+00,	0,	1460043939744100045,	1817391998
-3.9015e-01,	-1.6726e-01,	1.0090e+01,	-5.7593e-03,	-6.2755e-03,	-3.8623e-02,	0.0000e+00,	0,	1460043939746586569,	1819878522
-3.7647e-01,	-1.9874e-01,	1.0093e+01,	-6.0562e-03,	-3.4005e-03,	-3.3326e-02,	0.0000e+00,	0,	1460043939749093884,	1822385837
-3.6471e-01,	-2.1494e-01,	1.0083e+01,	-4.9098e-03,	-1.2087e-03,	-2.2339e-02,	0.0000e+00,	0,	1460043939751598825,	1824890778
-3.8261e-01,	-1.9935e-01,	1.0046e+01,	-4.2413e-03,	-2.9367e-05,	-1.1192e-02,	0.0000e+00,	0,	1460043939754052557,	1827344510
-4.5141e-01,	-1.8689e-01,	9.9970e+00,	-4.8675e-03,	-1.7907e-03,	-1.3565e-03,	0.0000e+00,	0,	1460043939756547581,	1829839534
-4.8349e-01,	-1.9933e-01,	9.9515e+00,	-5.1968e-03,	-5.1672e-03,	9.1892e-03,	0.0000e+00,	0,	1460043939759103521,	1832395474
-4.5056e-01,	-2.4601e-01,	9.9511e+00,	-3.5934e-03,	-6.4035e-03,	2.0594e-02,	0.0000e+00,	0,	1460043939761585504,	1834877457
-4.5694e-01,	-3.0303e-01,	9.9782e+00,	-1.9985e-03,	-4.5096e-03,	3.1973e-02,	0.0000e+00,	0,	1460043939764048778,	1837340731
-5.4153e-01,	-3.0980e-01,	9.9648e+00,	-1.0463e-03,	-2.3310e-03,	4.1673e-02,	0.0000e+00,	0,	1460043939766597468,	1839889421
-6.2072e-01,	-2.7079e-01,	9.9159e+00,	-1.8907e-03,	-1.9973e-03,	4.9513e-02,	0.0000e+00,	0,	1460043939769107158,	1842399111
-6.3207e-01,	-2.4174e-01,	9.9093e+00,	-3.8376e-03,	-2.0429e-03,	5.6122e-02,	0.0000e+00,	0,	1460043939771548933,	1844840886
-5.8886e-01,	-2.3734e-01,	9.9727e+00,	-5.6290e-03,	-8.4939e-05,	6.0765e-02,	0.0000e+00,	0,	1460043939774099289,	1847391242
-5.4226e-01,	-2.4249e-01,	1.0041e+01,	-7.3302e-03,	3.8373e-03,	6.2857e-02,	0.0000e+00,	0,	1460043939776602855,	1849894808
-4.6112e-01,	-2.4223e-01,	1.0063e+01,	-8.6048e-03,	8.1737e-03,	6.3274e-02,	0.0000e+00,	0,	1460043939779057171,	1852349124
-3.6241e-01,	-2.0309e-01,	1.0055e+01,	-9.5682e-03,	1.2362e-02,	6.2710e-02,	0.0000e+00,	0,	1460043939781570694,	1854862647
-3.3598e-01,	-1.1572e-01,	1.0052e+01,	-1.0764e-02,	1.4614e-02,	6.0763e-02,	0.0000e+00,	0,	1460043939784101385,	1857393338
-3.7644e-01,	-4.7495e-02,	1.0049e+01,	-1.2335e-02,	1.3954e-02,	5.7820e-02,	0.0000e+00,	0,	1460043939786548951,	1859840904
-3.8266e-01,	-5.1721e-02,	1.0038e+01,	-1.3104e-02,	1.1486e-02,	5.5135e-02,	1.3483e-01,	1,	1460043939789105724,	1862397677
-3.7304e-01,	-1.0139e-01,	1.0044e+01,	-1.1633e-02,	9.3547e-03,	5.3636e-02,	0.0000e+00,	0,	1460043939791571748,	1864863701
-4.0576e-01,	-1.2165e-01,	1.0076e+01,	-7.7859e-03,	7.3530e-03,	5.2876e-02,	0.0000e+00,	0,	1460043939794049689,	1867341642
-4.5512e-01,	-6.7567e-02,	1.0100e+01,	-3.9361e-03,	4.4694e-03,	5.0517e-02,	0.0000e+00,	0,	1460043939796566879,	1869858832
-4.6781e-01,	-6.7587e-04,	1.0142e+01,	-2.6211e-03,	1.8015e-03,	4.4738e-02,	1.3483e-01,	1,	1460043939799064778,	1872356731
-4.6457e-01,	-1.1093e-02,	1.0212e+01,	-3.6331e-03,	9.2668e-04,	3.7737e-02,	0.0000e+00,	0,	1460043939801548885,	1874840838
-5.1537e-01,	-9.2894e-02,	1.0250e+01,	-3.9440e-03,	9.9126e-04,	3.1823e-02,	0.0000e+00,	0,	1460043939804067201,	1877359154
-6.1610e-01,	-1.6866e-01,	1.0216e+01,	-2.4669e-03,	-1.0705e-03,	2.7234e-02,	0.0000e+00,	0,	1460043939806550141,	1879842094
-6.5155e-01,	-2.0288e-01,	1.0168e+01,	1.2102e-04,	-3.7119e-03,	2.3845e-02,	0.0000e+00,	0,	1460043939809061207,	1882353160
-5.9444e-01,	-1.8813e-01,	1.0164e+01,	1.4136e-03,	-3.1454e-03,	1.9637e-02,	0.0000e+00,	0,	1460043939811574314,	1884866267
-5.4415e-01,	-9.7222e-02,	1.0147e+01,	-1.3036e-03,	-5.5549e-04,	1.3822e-02,	0.0000e+00,	0,	1460043939814050213,	1887342166
-5.1307e-01,	-1.1631e-02,	1.0062e+01,	-6.5956e-03,	7.0014e-04,	5.0735e-03,	0.0000e+00,	0,	1460043939816553237,	1889845190
-3.4853e-01,	-9.4427e-02,	9.9421e+00,	-9.9007e-03,	2.7169e-03,	-6.4506e-03,	0.0000e+00,	0,	1460043939819083844,	1892375797
-1.7914e-01,	-2.4170e-01,	9.8224e+00,	-8.1366e-03,	8.0273e-03,	-1.9204e-02,	0.0000e+00,	0,	1460043939821566451,	1894858404
-2.5880e-01,	-2.2466e-01,	9.7490e+00,	-4.3932e-03,	8.5312e-03,	-3.0518e-02,	0.0000e+00,	0,	1460043939824052017,	1897343970
-3.7372e-01,	-6.8142e-02,	9.7156e+00,	-5.6049e-03,	2.0254e-03,	-3.9822e-02,	0.0000e+00,	0,	1460043939826567374,	1899859327
-2.6248e-01,	1.8025e-02,	9.7585e+00,	-1.1914e-02,	-1.8281e-05,	-4.8712e-02,	0.0000e+00,	0,	1460043939829079481,	1902371434
-1.3155e-01,	-1.1577e-01,	9.9036e+00,	-1.4993e-02,	7.8438e-03,	-5.6741e-02,	0.0000e+00,	0,	1460043939831559713,	1904851666
-2.2675e-01,	-3.6840e-01,	1.0047e+01,	-1.0586e-02,	1.5812e-02,	-6.3798e-02,	0.0000e+00,	0,	1460043939834066653,	1907358606
-4.1150e-01,	-5.4380e-01,	1.0078e+01,	-3.4747e-03,	1.7424e-02,	-6.8138e-02,	0.0000e+00,	0,	1460043939836570719,	1909862672
-5.0864e-01,	-6.0600e-01,	1.0023e+01,	-1.0181e-03,	1.5056e-02,	-6.8976e-02,	0.0000e+00,	0,	1460043939839059660,	1912351613
-6.0843e-01,	-6.7934e-01,	1.0033e+01,	-2.0325e-03,	1.0196e-02,	-6.4531e-02,	0.0000e+00,	0,	1460043939841568558,	1914860511
-7.3464e-01,	-8.7011e-01,	1.0135e+01,	-1.0118e-03,	1.0782e-03,	-5.4937e-02,	0.0000e+00,	0,	1460043939844067374,	1917359327
-6.8852e-01,	-1.0902e+00,	1.0228e+01,	3.3866e-03,	-7.6146e-03,	-4.0180e-02,	0.0000e+00,	0,	1460043939846556856,	1919848809
-4.8683e-01,	-1.1761e+00,	1.0243e+01,	7.8236e-03,	-6.1408e-03,	-1.9732e-02,	0.0000e+00,	0,	1460043939849055130,	1922347083
-4.5896e-01,	-1.1294e+00,	1.0222e+01,	7.8967e-03,	2.8444e-03,	6.7404e-03,	0.0000e+00,	0,	1460043939851576195,	1924868148
-6.0600e-01,	-1.1288e+00,	1.0199e+01,	2.5617e-03,	8.6769e-03,	3.6469e-02,	0.0000e+00,	0,	1460043939854062553,	1927354506
-7.5387e-01,	-1.1697e+00,	1.0141e+01,	-4.6004e-03,	7.7546e-03,	6.6277e-02,	0.0000e+00,	0,	1460043939856551868,	1929843821
-8.9244e-01,	-1.1828e+00,	1.0069e+01,	-9.0033e-03,	-1.1961e-04,	9.4247e-02,	0.0000e+00,	0,	1460043939859069100,	1932361053
-9.8700e-01,	-1.2075e+00,	1.0031e+01,	-9.1818e-03,	-1.0588e-02,	1.2116e-01,	0.0000e+00,	0,	1460043939861580207,	1934872160
-1.0226e+00,	-1.1544e+00,	1.0033e+01,	-7.2103e-03,	-1.6710e-02,	1.4407e-01,	0.0000e+00,	0,	1460043939864056023,	1937347976
-1.0222e+00,	-9.8467e-01,	1.0034e+01,	-7.5207e-03,	-1.3008e-02,	1.5921e-01,	0.0000e+00,	0,	1460043939866575588,	1939867541
-1.0748e+00,	-8.0040e-01,	1.0031e+01,	-1.1702e-02,	-2.3890e-03,	1.6447e-01,	0.0000e+00,	0,	1460043939869061487,	1942353440
-1.2590e+00,	-6.9750e-01,	1.0038e+01,	-1.6944e-02,	5.7976e-03,	1.6187e-01,	1.3481e-01,	1,	1460043939871567219,	1944859172
-1.4394e+00,	-7.0449e-01,	1.0052e+01,	-1.8274e-02,	4.1346e-03,	1.5411e-01,	0.0000e+00,	0,	1460043939874064785,	1947356738
-1.4129e+00,	-7.4358e-01,	1.0059e+01,	-1.3550e-02,	-4.3636e-03,	1.4276e-01,	0.0000e+00,	0,	1460043939876587975,	1949879928
-1.2387e+00,	-6.8233e-01,	1.0073e+01,	-5.9172e-03,	-1.0146e-02,	1.3051e-01,	0.0000e+00,	0,	1460043939879080749,	1952372702
-1.0435e+00,	-5.2156e-01,	1.0100e+01,	-1.4358e-03,	-8.2064e-03,	1.1898e-01,	1.3479e-01,	1,	1460043939881578981,	1954870934
-9.2991e-01,	-3.5999e-01,	1.0133e+01,	-5.0211e-03,	-1.8946e-03,	1.0897e-01,	0.0000e+00,	0,	1460043939884086964,	1957378917
-8.7650e-01,	-2.8224e-01,	1.0152e+01,	-1.6061e-02,	2.6432e-03,	1.0139e-01,	0.0000e+00,	0,	1460043939886593737,	1959885690
-8.3351e-01,	-3.6797e-01,	1.0139e+01,	-2.3785e-02,	2.1612e-03,	9.3978e-02,	0.0000e+00,	0,	1460043939889074553,	1962366506
-7.8013e-01,	-5.6602e-01,	1.0138e+01,	-1.9912e-02,	-3.3680e-03,	8.5423e-02,	1.3479e-01,	1,	1460043939891597535,	1964889488
-6.8790e-01,	-6.4434e-01,	1.0098e+01,	-6.0866e-03,	-1.2793e-02,	7.6813e-02,	0.0000e+00,	0,	1460043939894098517,	1967390470
-5.3079e-01,	-5.0656e-01,	9.9706e+00,	5.3421e-03,	-1.8393e-02,	6.9060e-02,	0.0000e+00,	0,	1460043939896584249,	1969876202
-3.7409e-01,	-2.9963e-01,	9.7817e+00,	6.9146e-03,	-1.6967e-02,	6.1072e-02,	0.0000e+00,	0,	1460043939899082565,	1972374518
-3.6383e-01,	-2.1052e-01,	9.6416e+00,	-1.3665e-03,	-1.4050e-02,	5.4990e-02,	0.0000e+00,	0,	1460043939901609672,	1974901625
-4.3879e-01,	-3.0461e-01,	9.6050e+00,	-1.1955e-02,	-1.5235e-02,	5.2309e-02,	0.0000e+00,	0,	1460043939904097071,	1977389024
-4.2454e-01,	-5.1282e-01,	9.6397e+00,	-1.5336e-02,	-1.9378e-02,	5.1573e-02,	0.0000e+00,	0,	1460043939906578803,	1979870756
-3.0400e-01,	-7.2038e-01,	9.6939e+00,	-8.9099e-03,	-2.1036e-02,	5.3039e-02,	0.0000e+00,	0,	1460043939909100785,	1982392738
-1.8982e-01,	-7.9220e-01,	9.7699e+00,	2.7472e-03,	-1.8325e-02,	5.8759e-02,	0.0000e+00,	0,	1460043939911612517,	1984904470
-1.5733e-01,	-6.9365e-01,	9.8694e+00,	9.6537e-03,	-1.3869e-02,	6.9405e-02,	0.0000e+00,	0,	1460043939914086000,	1987377953
-2.2384e-01,	-5.5851e-01,	9.9742e+00,	6.2632e-03,	-1.1723e-02,	8.2250e-02,	0.0000e+00,	0,	1460043939916600940,	1989892893
-4.1153e-01,	-4.7057e-01,	1.0062e+01,	-3.7163e-03,	-1.5671e-02,	9.4186e-02,	0.0000e+00,	0,	1460043939919109130,	1992401083
-5.4982e-01,	-4.5637e-01,	1.0129e+01,	-1.3615e-02,	-2.5086e-02,	1.0381e-01,	0.0000e+00,	0,	1460043939921593404,	1994885357
-4.6908e-01,	-5.6459e-01,	1.0208e+01,	-1.7579e-02,	-3.0916e-02,	1.1113e-01,	0.0000e+00,	0,	1460043939924107262,	1997399215
-3.5585e-01,	-6.7426e-01,	1.0272e+01,	-1.3817e-02,	-2.7716e-02,	1.1543e-01,	0.0000e+00,	0,	1460043939926611327,	1999903280
-4.2673e-01,	-6.1433e-01,	1.0270e+01,	-6.2074e-03,	-1.9720e-02,	1.1820e-01,	0.0000e+00,	0,	1460043939929077893,	2002369846
-6.2744e-01,	-4.1592e-01,	1.0232e+01,	-3.1300e-03,	-1.3317e-02,	1.2077e-01,	0.0000e+00,	0,	1460043939931609291,	2004901244
-8.4006e-01,	-1.6471e-01,	1.0218e+01,	-9.7638e-03,	-1.2958e-02,	1.1947e-01,	0.0000e+00,	0,	1460043939934107357,	2007399310
-9.7583e-01,	-2.3739e-02,	1.0200e+01,	-2.0810e-02,	-1.7992e-02,	1.1192e-01,	0.0000e+00,	0,	1460043939936553214,	2009845167
-9.7541e-01,	-1.8422e-01,	1.0131e+01,	-2.4181e-02,	-2.3660e-02,	1.0261e-01,	0.0000e+00,	0,	1460043939939101363,	2012393316
-8.8427e-01,	-4.2389e-01,	1.0019e+01,	-1.4651e-02,	-2.5471e-02,	9.8659e-02,	0.0000e+00,	0,	1460043939941593095,	2014885048
-7.7413e-01,	-4.0624e-01,	9.9208e+00,	-1.0943e-03,	-2.1408e-02,	1.0045e-01,	0.0000e+00,	0,	1460043939944060203,	2017352156
-7.8276e-01,	-1.9870e-01,	9.9016e+00,	3.1357e-03,	-1.4769e-02,	1.0409e-01,	0.0000e+00,	0,	1460043939946601393,	2019893346
-9.5580e-01,	-1.1249e-02,	9.9385e+00,	-6.3731e-03,	-1.2493e-02,	1.0853e-01,	0.0000e+00,	0,	1460043939949059792,	2022351745
-1.0421e+00,	2.1771e-02,	9.9776e+00,	-2.1476e-02,	-1.4994e-02,	1.1481e-01,	0.0000e+00,	0,	1460043939951552733,	2024844686
-9.2970e-01,	-2.1223e-01,	1.0017e+01,	-2.8686e-02,	-1.5860e-02,	1.2116e-01,	0.0000e+00,	0,	1460043939954109673,	2027401626
-8.0654e-01,	-5.3841e-01,	1.0076e+01,	-2.1638e-02,	-1.4308e-02,	1.2715e-01,	0.0000e+00,	0,	1460043939956554239,	2029846192
-7.2961e-01,	-6.2279e-01,	1.0129e+01,	-6.8568e-03,	-1.3093e-02,	1.3277e-01,	0.0000e+00,	0,	1460043939959055262,	2032347215
-5.7453e-01,	-4.6983e-01,	1.0150e+01,	5.6599e-04,	-1.0666e-02,	1.3931e-01,	0.0000e+00,	0,	1460043939961603119,	2034895072
-3.8649e-01,	-2.9214e-01,	1.0146e+01,	-5.7435e-03,	-3.8619e-03,	1.4633e-01,	1.3438e-01,	1,	1460043939964065768,	2037357721
-2.8279e-01,	-2.8809e-01,	1.0131e+01,	-1.6158e-02,	4.4792e-03,	1.5282e-01,	0.0000e+00,	0,	1460043939966556251,	2039848204
-2.0067e-01,	-5.0280e-01,	1.0073e+01,	-1.8797e-02,	8.7497e-03,	1.6101e-01,	0.0000e+00,	0,	1460043939969076691,	2042368644
-1.4894e-01,	-6.6812e-01,	9.9586e+00,	-1.1310e-02,	3.8940e-03,	1.6788e-01,	0.0000e+00,	0,	1460043939971567923,	2044859876
-1.1251e-01,	-5.7547e-01,	9.8753e+00,	-4.7747e-03,	-1.0058e-02,	1.6903e-01,	1.3427e-01,	1,	1460043939974065155,	2047357108
6.5220e-03,	-2.9580e-01,	9.8715e+00,	-8.4155e-03,	-2.4002e-02,	1.6497e-01,	0.0000e+00,	0,	1460043939976577846,	2049869799
3.2236e-01,	-1.6220e-01,	9.9418e+00,	-2.0371e-02,	-2.4613e-02,	1.6068e-01,	0.0000e+00,	0,	1460043939979071745,	2052363698
6.2057e-01,	-3.4321e-01,	1.0047e+01,	-2.8588e-02,	-7.9085e-03,	1.5277e-01,	0.0000e+00,	0,	1460043939981552935,	2054844888
5.0814e-01,	-5.9118e-01,	1.0125e+01,	-2.6078e-02,	7.7555e-03,	1.3933e-01,	1.3432e-01,	1,	1460043939984074751,	2057366704
1.6990e-01,	-5.9721e-01,	1.0115e+01,	-1.8326e-02,	3.7842e-03,	1.2133e-01,	0.0000e+00,	0,	1460043939986578858,	2059870811
1.1176e-01,	-4.7995e-01,	1.0094e+01,	-1.5358e-02,	-1.3026e-02,	9.8495e-02,	0.0000e+00,	0,	1460043939989056090,	2062348043
3.7290e-01,	-4.1184e-01,	1.0173e+01,	-1.9083e-02,	-2.4491e-02,	7.2383e-02,	0.0000e+00,	0,	1460043939991560781,	2064852734
6.1424e-01,	-4.1621e-01,	1.0308e+01,	-2.3539e-02,	-2.3253e-02,	4.6152e-02,	0.0000e+00,	0,	1460043939994084929,	2067376882
6.5173e-01,	-5.5855e-01,	1.0387e+01,	-2.3240e-02,	-1.6567e-02,	2.1313e-02,	0.0000e+00,	0,	1460043939996568953,	2069860906
5.2151e-01,	-7.2335e-01,	1.0369e+01,	-1.7613e-02,	-1.1399e-02,	-1.4796e-03,	0.0000e+00,	0,	1460043939999052352,	2072344305
3.5016e-01,	-6.7299e-01,	1.0270e+01,	-1.1481e-02,	-1.0802e-02,	-2.1627e-02,	0.0000e+00,	0,	1460043940001571293,	2074863246
1.9904e-01,	-5.5269e-01,	1.0117e+01,	-9.7913e-03,	-1.6881e-02,	-3.6655e-02,	0.0000e+00,	0,	1460043940004085900,	2077377853
2.2273e-01,	-5.6541e-01,	9.9451e+00,	-1.0200e-02,	-2.5226e-02,	-4.4758e-02,	0.0000e+00,	0,	1460043940006561507,	2079853460
4.8980e-01,	-6.2187e-01,	9.7461e+00,	-9.1043e-03,	-2.5431e-02,	-4.6407e-02,	0.0000e+00,	0,	1460043940009072406,	2082364359
6.7518e-01,	-5.5286e-01,	9.5838e+00,	-8.9126e-03,	-1.5580e-02,	-4.1224e-02,	0.0000e+00,	0,	1460043940011580346,	2084872299
6.1017e-01,	-3.5995e-01,	9.5431e+00,	-1.1967e-02,	-6.8934e-03,	-3.4935e-02,	0.0000e+00,	0,	1460043940014063120,	2087355073
4.7561e-01,	-2.0384e-01,	9.6187e+00,	-1.7702e-02,	-6.1980e-03,	-3.1956e-02,	0.0000e+00,	0,	1460043940016579227,	2089871180
3.8283e-01,	-1.3781e-01,	9.7482e+00,	-2.0635e-02,	-1.1667e-02,	-3.2113e-02,	0.0000e+00,	0,	1460043940019080834,	2092372787
3.9024e-01,	-1.5192e-01,	9.9118e+00,	-1.6533e-02,	-1.7274e-02,	-3.4545e-02,	0.0000e+00,	0,	1460043940021554650,	2094846603
5.1522e-01,	-1.4367e-01,	1.0122e+01,	-7.6552e-03,	-1.6830e-02,	-3.8795e-02,	0.0000e+00,	0,	1460043940024071091,	2097363044
5.7051e-01,	-2.9656e-02,	1.0299e+01,	-1.5456e-04,	-1.0415e-02,	-4.3052e-02,	0.0000e+00,	0,	1460043940026577406,	2099869359
5.3391e-01,	1.1973e-01,	1.0358e+01,	4.4491e-04,	-3.2974e-03,	-4.6888e-02,	0.0000e+00,	0,	1460043940029054180,	2102346133
5.0954e-01,	2.2836e-01,	1.0314e+01,	-3.5091e-03,	2.4404e-04,	-5.0497e-02,	0.0000e+00,	0,	1460043940031572204,	2104864157
4.6228e-01,	2.7578e-01,	1.0272e+01,	-7.9663e-03,	-2.0828e-03,	-5.2657e-02,	0.0000e+00,	0,	1460043940034076686,	2107368639
4.7297e-01,	2.1654e-01,	1.0245e+01,	-1.0423e-02,	-8.3454e-03,	-5.2956e-02,	0.0000e+00,	0,	1460043940036561377,	2109853330
5.7042e-01,	1.1235e-01,	1.0184e+01,	-8.8835e-03,	-1.1194e-02,	-5.0597e-02,	0.0000e+00,	0,	1460043940039073317,	2112365270
6.4735e-01,	1.2519e-01,	1.0115e+01,	-4.1153e-03,	-8.2285e-03,	-4.7494e-02,	0.0000e+00,	0,	1460043940041562341,	2114854294
6.5194e-01,	2.3259e-01,	1.0083e+01,	-8.4606e-04,	-2.4676e-03,	-4.6973e-02,	0.0000e+00,	0,	1460043940044058240,	2117350193
5.4299e-01,	3.2333e-01,	1.0073e+01,	-2.0659e-03,	2.4781e-03,	-4.9442e-02,	0.0000e+00,	0,	1460043940046585847,	2119877800
3.6897e-01,	3.5045e-01,	1.0065e+01,	-6.5125e-03,	3.4710e-03,	-5.2999e-02,	0.0000e+00,	0,	1460043940049062121,	2122354074
2.9482e-01,	2.8712e-01,	1.0079e+01,	-9.7581e-03,	1.3072e-03,	-5.8362e-02,	0.0000e+00,	0,	1460043940051566270,	2124858223
3.0909e-01,	1.4669e-01,	1.0131e+01,	-7.1795e-03,	4.2044e-04,	-6.4595e-02,	0.0000e+00,	0,	1460043940054082127,	2127374080
2.9134e-01,	7.1819e-02,	1.0161e+01,	-1.7799e-03,	1.5345e-03,	-7.0633e-02,	1.3430e-01,	1,	1460043940056574567,	2129866520
2.4141e-01,	1.1973e-01,	1.0140e+01,	5.4734e-05,	2.7628e-03,	-7.5973e-02,	0.0000e+00,	0,	1460043940059072424,	2132364377
1.9374e-01,	1.5670e-01,	1.0117e+01,	-3.1181e-03,	2.9033e-03,	-8.2933e-02,	0.0000e+00,	0,	1460043940061589073,	2134881026
9.0521e-02,	8.5212e-02,	1.0116e+01,	-7.7073e-03,	1.4198e-03,	-8.9834e-02,	0.0000e+00,	0,	1460043940064080597,	2137372550
-6.8206e-02,	-2.7860e-02,	1.0100e+01,	-8.6879e-03,	-2.5894e-03,	-9.5410e-02,	1.3434e-01,	1,	1460043940066585579,	2139877532
-2.4937e-01,	-1.3219e-01,	1.0078e+01,	-5.8136e-03,	-7.2355e-03,	-9.9465e-02,	0.0000e+00,	0,	1460043940069092228,	2142384181
-4.9348e-01,	-2.1052e-01,	1.0053e+01,	-1.5910e-03,	-1.0041e-02,	-9.9763e-02,	0.0000e+00,	0,	1460043940071593419,	2144885372
-8.2625e-01,	-2.4970e-01,	9.9875e+00,	7.2206e-04,	-1.2204e-02,	-9.6907e-02,	0.0000e+00,	0,	1460043940074080234,	2147372187
-1.1534e+00,	-2.7724e-01,	9.9109e+00,	-1.3570e-04,	-1.4124e-02,	-9.1789e-02,	0.0000e+00,	0,	1460043940076601174,	2149893127
-1.3355e+00,	-3.4494e-01,	9.8447e+00,	-1.9671e-03,	-1.5284e-02,	-8.5245e-02,	0.0000e+00,	0,	1460043940079108448,	2152400401
-1.4097e+00,	-4.7257e-01,	9.7603e+00,	-2.5681e-03,	-1.4114e-02,	-7.2322e-02,	0.0000e+00,	0,	1460043940081582597,	2154874550
-1.4262e+00,	-5.7368e-01,	9.6376e+00,	-1.2525e-03,	-1.0212e-02,	-5.1829e-02,	0.0000e+00,	0,	1460043940084091913,	2157383866
-1.4430e+00,	-6.1281e-01,	9.5208e+00,	-6.9789e-05,	-7.4042e-03,	-2.6925e-02,	0.0000e+00,	0,	1460043940086616061,	2159908014
-1.4941e+00,	-6.4507e-01,	9.4538e+00,	-3.7871e-04,	-8.8579e-03,	9.9950e-04,	0.0000e+00,	0,	1460043940089095044,	2162386997
-1.5407e+00,	-6.9145e-01,	9.4621e+00,	-6.9211e-04,	-1.2950e-02,	3.1762e-02,	0.0000e+00,	0,	1460043940091586526,	2164878479
-1.4934e+00,	-7.3437e-01,	9.5430e+00,	-4.5050e-04,	-1.5034e-02,	6.4449e-02,	0.0000e+00,	0,	1460043940094104133,	2167396086
-1.3685e+00,	-7.6230e-01,	9.6886e+00,	-1.0591e-03,	-1.2210e-02,	9.8726e-02,	0.0000e+00,	0,	1460043940096609490,	2169901443
-1.2563e+00,	-7.9306e-01,	9.8538e+00,	-2.6540e-03,	-6.7238e-03,	1.3182e-01,	0.0000e+00,	0,	1460043940099088889,	2172380842
-1.1807e+00,	-7.9175e-01,	9.9968e+00,	-4.3087e-03,	-2.3815e-03,	1.6186e-01,	0.0000e+00,	0,	1460043940101605246,	2174897199
-1.0647e+00,	-7.2935e-01,	1.0122e+01,	-5.7439e-03,	-1.2477e-03,	1.8727e-01,	0.0000e+00,	0,	1460043940104099437,	2177391390
-8.7602e-01,	-6.6049e-01,	1.0244e+01,	-7.6010e-03,	-2.9833e-03,	2.0623e-01,	0.0000e+00,	0,	1460043940106592836,	2179884789
-6.3446e-01,	-6.0889e-01,	1.0329e+01,	-1.0252e-02,	-4.7551e-03,	2.1858e-01,	0.0000e+00,	0,	1460043940109111776,	2182403729
-3.2881e-01,	-5.2593e-01,	1.0338e+01,	-1.3375e-02,	-2.5193e-03,	2.2503e-01,	0.0000e+00,	0,	1460043940111607675,	2184899628
-1.2581e-02,	-4.1018e-01,	1.0336e+01,	-1.6412e-02,	3.8177e-03,	2.2674e-01,	0.0000e+00,	0,	1460043940114055241,	2187347194
1.8384e-01,	-3.0865e-01,	1.0365e+01,	-1.8656e-02,	9.3975e-03,	2.2272e-01,	0.0000e+00,	0,	1460043940116604806,	2189896759
2.8462e-01,	-2.3649e-01,	1.0439e+01,	-2.0307e-02,	8.9257e-03,	2.1144e-01,	0.0000e+00,	0,	1460043940119122038,	2192413991
4.0299e-01,	-2.1912e-01,	1.0544e+01,	-2.0720e-02,	5.0266e-03,	1.9402e-01,	0.0000e+00,	0,	1460043940121556521,	2194848474
5.3464e-01,	-2.1992e-01,	1.0647e+01,	-2.0228e-02,	2.6456e-03,	1.7139e-01,	0.0000e+00,	0,	1460043940124104419,	2197396372
6.5350e-01,	-2.1596e-01,	1.0722e+01,	-1.9397e-02,	3.2747e-03,	1.4574e-01,	0.0000e+00,	0,	1460043940126604443,	2199896396
7.4965e-01,	-2.6209e-01,	1.0721e+01,	-1.8772e-02,	5.5114e-03,	1.2011e-01,	0.0000e+00,	0,	1460043940129063134,	2202355087
8.0889e-01,	-2.7567e-01,	1.0607e+01,	-1.8716e-02,	7.3340e-03,	9.8216e-02,	0.0000e+00,	0,	1460043940131604782,	2204896735
7.6791e-01,	-1.9562e-01,	1.0431e+01,	-2.2159e-02,	6.0693e-03,	7.6875e-02,	0.0000e+00,	0,	1460043940134069723,	2207361676
6.7312e-01,	-2.2731e-01,	1.0285e+01,	-2.8935e-02,	1.1754e-03,	5.1688e-02,	0.0000e+00,	0,	1460043940136557497,	2209849450
5.9967e-01,	-4.6795e-01,	1.0157e+01,	-3.0336e-02,	-4.5705e-03,	2.6605e-02,	0.0000e+00,	0,	1460043940139111187,	2212403140
5.1868e-01,	-6.5451e-01,	1.0012e+01,	-2.2730e-02,	-7.1869e-03,	4.0492e-03,	0.0000e+00,	0,	1460043940141564253,	2214856206
3.2131e-01,	-5.7737e-01,	9.8973e+00,	-1.4156e-02,	-6.9843e-03,	-1.9499e-02,	0.0000e+00,	0,	1460043940144055652,	2217347605
8.4042e-03,	-3.5540e-01,	9.8338e+00,	-1.3575e-02,	-6.9979e-03,	-4.6493e-02,	0.0000e+00,	0,	1460043940146579426,	2219871379
-3.5353e-01,	-2.9041e-01,	9.7681e+00,	-2.0078e-02,	-9.6423e-03,	-7.1702e-02,	1.3477e-01,	1,	1460043940149061408,	2222353361
-6.0709e-01,	-4.8063e-01,	9.7114e+00,	-2.1763e-02,	-1.2548e-02,	-8.9313e-02,	0.0000e+00,	0,	1460043940151559557,	2224851510
-7.1644e-01,	-7.5183e-01,	9.7077e+00,	-9.3507e-03,	-8.6722e-03,	-9.6508e-02,	0.0000e+00,	0,	1460043940154081039,	2227372992
-8.2729e-01,	-8.5544e-01,	9.7302e+00,	1.3158e-02,	3.2632e-03,	-9.3089e-02,	0.0000e+00,	0,	1460043940156564355,	2229856308
-1.0699e+00,	-6.3285e-01,	9.6339e+00,	2.8930e-02,	1.5234e-02,	-8.1869e-02,	1.3477e-01,	1,	1460043940159068920,	2232360873
-1.4174e+00,	-2.1872e-01,	9.4161e+00,	2.5873e-02,	1.4716e-02,	-6.7192e-02,	0.0000e+00,	0,	1460043940161580527,	2234872480
-1.6754e+00,	1.0456e-01,	9.2198e+00,	3.9299e-03,	-1.7285e-03,	-4.8361e-02,	0.0000e+00,	0,	1460043940164068801,	2237360754
-1.7680e+00,	1.3834e-01,	9.2068e+00,	-2.2397e-02,	-2.4218e-02,	-2.8108e-02,	0.0000e+00,	0,	1460043940166558700,	2239850653
-1.6865e+00,	-1.4186e-01,	9.3733e+00,	-3.4011e-02,	-3.6231e-02,	-9.6237e-03,	0.0000e+00,	0,	1460043940169088974,	2242380927
-1.5577e+00,	-4.9999e-01,	9.6107e+00,	-2.3732e-02,	-2.7549e-02,	7.2660e-03,	0.0000e+00,	0,	1460043940171583373,	2244875326
-1.6720e+00,	-5.8410e-01,	9.8076e+00,	-1.2885e-03,	-9.1358e-03,	2.2368e-02,	0.0000e+00,	0,	1460043940174056022,	2247347975
-1.9795e+00,	-3.5297e-01,	9.8948e+00,	1.5703e-02,	-1.7463e-04,	3.4684e-02,	0.0000e+00,	0,	1460043940176568129,	2249860082
-2.0826e+00,	-6.6624e-02,	9.9372e+00,	1.5779e-02,	-6.2926e-03,	4.6924e-02,	0.0000e+00,	0,	1460043940179096486,	2252388439
-1.8476e+00,	8.7414e-02,	1.0007e+01,	1.6212e-03,	-1.7364e-02,	6.3025e-02,	0.0000e+00,	0,	1460043940181569885,	2254861838
-1.3899e+00,	-2.4146e-02,	1.0106e+01,	-1.2836e-02,	-2.1758e-02,	8.2201e-02,	0.0000e+00,	0,	1460043940184061492,	2257353445
-9.3975e-01,	-3.7332e-01,	1.0204e+01,	-1.5042e-02,	-1.7505e-02,	1.0453e-01,	0.0000e+00,	0,	1460043940186579474,	2259871427
-6.9490e-01,	-6.6170e-01,	1.0244e+01,	-5.3010e-03,	-1.0594e-02,	1.2892e-01,	0.0000e+00,	0,	1460043940189078998,	2262370951
-6.1949e-01,	-7.0194e-01,	1.0216e+01,	5.6517e-03,	-8.2201e-03,	1.5451e-01,	0.0000e+00,	0,	1460043940191565522,	2264857475
-5.8074e-01,	-5.4681e-01,	1.0196e+01,	6.7851e-03,	-1.3383e-02,	1.8027e-01,	0.0000e+00,	0,	1460043940194073754,	2267365707
-4.9922e-01,	-3.6116e-01,	1.0248e+01,	-3.8917e-03,	-2.1993e-02,	2.0311e-01,	0.0000e+00,	0,	1460043940196575319,	2269867272
-3.2704e-01,	-3.8927e-01,	1.0331e+01,	-1.7741e-02,	-2.6618e-02,	2.2023e-01,	0.0000e+00,	0,	1460043940199068510,	2272360463
-1.3514e-01,	-6.3456e-01,	1.0387e+01,	-2.4172e-02,	-2.3272e-02,	2.3219e-01,	0.0000e+00,	0,	1460043940201579825,	2274871778
-6.7987e-02,	-8.3776e-01,	1.0375e+01,	-1.8315e-02,	-1.7175e-02,	2.4003e-01,	0.0000e+00,	0,	1460043940204082849,	2277374802
-1.0666e-01,	-8.5475e-01,	1.0309e+01,	-7.0437e-03,	-1.5080e-02,	2.4156e-01,	0.0000e+00,	0,	1460043940206559123,	2279851076
-1.1539e-01,	-7.1172e-01,	1.0246e+01,	-1.3495e-03,	-1.6271e-02,	2.3648e-01,	0.0000e+00,	0,	1460043940209073980,	2282365933
-6.4164e-02,	-5.4065e-01,	1.0238e+01,	-3.7151e-03,	-1.5093e-02,	2.2598e-01,	0.0000e+00,	0,	1460043940211591462,	2284883415
3.5115e-02,	-5.1927e-01,	1.0301e+01,	-8.5020e-03,	-8.3162e-03,	2.1341e-01,	0.0000e+00,	0,	1460043940214058320,	2287350273
6.3367e-02,	-5.9372e-01,	1.0379e+01,	-8.6560e-03,	2.3979e-03,	1.9809e-01,	0.0000e+00,	0,	1460043940216576219,	2289868172
-9.1616e-02,	-6.2903e-01,	1.0379e+01,	-4.7976e-03,	1.1167e-02,	1.7648e-01,	0.0000e+00,	0,	1460043940219085326,	2292377279
-2.9859e-01,	-6.2400e-01,	1.0351e+01,	4.0160e-04,	1.6368e-02,	1.4946e-01,	0.0000e+00,	0,	1460043940221567641,	2294859594
-4.1822e-01,	-6.9037e-01,	1.0349e+01,	5.5122e-03,	1.8663e-02,	1.2465e-01,	0.0000e+00,	0,	1460043940224078498,	2297370451
-4.8163e-01,	-6.7098e-01,	1.0267e+01,	8.9256e-03,	1.8961e-02,	1.0566e-01,	0.0000e+00,	0,	1460043940226584981,	2299876934
-5.8223e-01,	-5.1782e-01,	1.0084e+01,	6.1688e-03,	1.3280e-02,	9.0077e-02,	0.0000e+00,	0,	1460043940229064005,	2302355958
-6.2111e-01,	-4.1743e-01,	9.8755e+00,	-4.0283e-03,	-9.7648e-04,	7.7609e-02,	0.0000e+00,	0,	1460043940231597403,	2304889356
-5.1790e-01,	-4.4961e-01,	9.7468e+00,	-1.5443e-02,	-1.3491e-02,	7.1355e-02,	0.0000e+00,	0,	1460043940234073802,	2307365755
-2.1544e-01,	-6.4501e-01,	9.7626e+00,	-1.9173e-02,	-1.1072e-02,	7.0753e-02,	0.0000e+00,	0,	1460043940236571326,	2309863279
7.1423e-03,	-8.0980e-01,	9.8023e+00,	-1.1653e-02,	6.7734e-03,	7.1304e-02,	0.0000e+00,	0,	1460043940239087808,	2312379761
-1.5628e-01,	-8.3382e-01,	9.7806e+00,	5.4915e-03,	2.4699e-02,	7.1141e-02,	1.3431e-01,	1,	1460043940241579957,	2314871910
-3.8476e-01,	-6.8178e-01,	9.6652e+00,	1.8770e-02,	2.9261e-02,	7.1266e-02,	0.0000e+00,	0,	1460043940244077939,	2317369892
-4.6969e-01,	-1.9797e-01,	9.5186e+00,	1.2950e-02,	2.2399e-02,	6.5725e-02,	0.0000e+00,	0,	1460043940246594505,	2319886458
-5.0321e-01,	2.0143e-01,	9.4394e+00,	-1.0685e-02,	6.1179e-03,	5.4160e-02,	0.0000e+00,	0,	1460043940249077237,	2322369190
-3.5055e-01,	-2.2178e-02,	9.4420e+00,	-3.1216e-02,	-1.4002e-02,	4.4691e-02,	1.3430e-01,	1,	1460043940251591469,	2324883422
4.4882e-02,	-5.2119e-01,	9.4922e+00,	-2.9632e-02,	-2.3399e-02,	4.5314e-02,	0.0000e+00,	0,	1460043940254100034,	2327391987
4.8037e-01,	-6.9019e-01,	9.5915e+00,	-8.6573e-03,	-1.4678e-02,	5.2564e-02,	0.0000e+00,	0,	1460043940256591475,	2329883428
5.1531e-01,	-4.3898e-01,	9.7273e+00,	1.1533e-02,	-1.8104e-03,	5.9019e-02,	0.0000e+00,	0,	1460043940259086999,	2332378952
2.0100e-01,	-5.7804e-03,	9.7998e+00,	1.3796e-02,	-3.3672e-03,	6.2883e-02,	0.0000e+00,	0,	1460043940261610606,	2334902559
1.4805e-01,	3.1604e-01,	9.8420e+00,	-4.0390e-04,	-1.4866e-02,	6.6596e-02,	0.0000e+00,	0,	1460043940264106963,	2337398916
4.5431e-01,	2.5524e-01,	9.9592e+00,	-1.4445e-02,	-2.0088e-02,	6.9117e-02,	0.0000e+00,	0,	1460043940266585487,	2339877440
5.7577e-01,	2.4550e-02,	1.0167e+01,	-1.4851e-02,	-1.8948e-02,	6.7668e-02,	0.0000e+00,	0,	1460043940269103011,	2342394964
5.7471e-01,	-3.1463e-02,	1.0336e+01,	-4.2579e-03,	-1.7861e-02,	6.0528e-02,	0.0000e+00,	0,	1460043940271621743,	2344913696
6.9468e-01,	1.4149e-01,	1.0398e+01,	5.6267e-03,	-1.5310e-02,	4.7975e-02,	0.0000e+00,	0,	1460043940274093059,	2347385012
8.2097e-01,	3.6078e-01,	1.0459e+01,	7.5206e-03,	-1.1234e-02,	3.0927e-02,	0.0000e+00,	0,	1460043940276597999,	2349889952
8.3785e-01,	5.0387e-01,	1.0568e+01,	2.5348e-03,	-1.0139e-02,	9.7385e-03,	0.0000e+00,	0,	1460043940279103898,	2352395851
8.1241e-01,	5.9575e-01,	1.0684e+01,	-4.4017e-03,	-1.3043e-02,	-1.4065e-02,	0.0000e+00,	0,	1460043940281608255,	2354900208
9.1142e-01,	5.6789e-01,	1.0742e+01,	-7.4447e-03,	-1.4205e-02,	-3.8355e-02,	0.0000e+00,	0,	1460043940284098946,	2357390899
1.0542e+00,	4.6117e-01,	1.0739e+01,	-4.3603e-03,	-9.3283e-03,	-6.5438e-02,	0.0000e+00,	0,	1460043940286603053,	2359895006
9.6509e-01,	4.2076e-01,	1.0684e+01,	2.2801e-04,	-3.3385e-03,	-9.5763e-02,	0.0000e+00,	0,	1460043940289097285,	2362389238
8.1571e-01,	3.5870e-01,	1.0574e+01,	5.1930e-03,	-1.4270e-03,	-1.2732e-01,	0.0000e+00,	0,	1460043940291594351,	2364886304
7.7157e-01,	1.9105e-01,	1.0416e+01,	1.1698e-02,	-1.5440e-03,	-1.5722e-01,	0.0000e+00,	0,	1460043940294116791,	2367408744
6.5566e-01,	1.1034e-01,	1.0239e+01,	1.4536e-02,	-1.6159e-03,	-1.8039e-01,	0.0000e+00,	0,	1460043940296603315,	2369895268
4.4710e-01,	1.3872e-01,	1.0110e+01,	1.0546e-02,	-2.4757e-03,	-1.9581e-01,	0.0000e+00,	0,	1460043940299059131,	2372351084
2.3627e-01,	6.2900e-02,	1.0046e+01,	1.1177e-03,	-3.6833e-03,	-2.0592e-01,	0.0000e+00,	0,	1460043940301609196,	2374901149
-2.4958e-02,	-1.1978e-01,	9.9987e+00,	-8.2211e-03,	-4.0942e-03,	-2.1184e-01,	0.0000e+00,	0,	1460043940304125970,	2377417923
-3.1953e-01,	-3.4244e-01,	9.9610e+00,	-1.0707e-02,	-3.9671e-03,	-2.1416e-01,	0.0000e+00,	0,	1460043940306560869,	2379852822
-6.4837e-01,	-5.3341e-01,	9.9459e+00,	-4.7072e-03,	-3.6212e-03,	-2.1239e-01,	0.0000e+00,	0,	1460043940309108101,	2382400054
-9.7329e-01,	-5.7935e-01,	9.9175e+00,	1.8967e-03,	-4.1515e-03,	-2.0606e-01,	0.0000e+00,	0,	1460043940311620166,	2384912119
-1.2196e+00,	-5.6946e-01,	9.8333e+00,	2.3384e-03,	-2.9251e-03,	-1.9546e-01,	0.0000e+00,	0,	1460043940314067524,	2387359477
-1.4555e+00,	-6.0959e-01,	9.7344e+00,	-2.4551e-03,	-4.9106e-04,	-1.7852e-01,	0.0000e+00,	0,	1460043940316608797,	2389900750
-1.7245e+00,	-7.0013e-01,	9.6760e+00,	-7.5884e-03,	-1.1872e-03,	-1.5394e-01,	0.0000e+00,	0,	1460043940319108404,	2392400357
-1.9248e+00,	-8.1132e-01,	9.6520e+00,	-1.0229e-02,	-4.9977e-03,	-1.2283e-01,	0.0000e+00,	0,	1460043940321560887,	2394852840
-2.0688e+00,	-9.1508e-01,	9.6413e+00,	-1.0513e-02,	-6.9511e-03,	-8.5961e-02,	1.3433e-01,	1,	1460043940324114994,	2397406947
-2.1343e+00,	-9.6675e-01,	9.6426e+00,	-1.0361e-02,	-6.1766e-03,	-4.5117e-02,	0.0000e+00,	0,	1460043940326575393,	2399867346
-2.1142e+00,	-9.0586e-01,	9.6717e+00,	-1.3073e-02,	-2.8966e-03,	-4.8528e-03,	0.0000e+00,	0,	1460043940329060167,	2402352120
-2.0960e+00,	-7.8601e-01,	9.7270e+00,	-1.7123e-02,	1.9973e-03,	3.1232e-02,	0.0000e+00,	0,	1460043940331583607,	2404875560
-2.0239e+00,	-7.5792e-01,	9.7426e+00,	-1.8561e-02,	5.2654e-03,	6.3689e-02,	1.3437e-01,	1,	1460043940334075464,	2407367417
-1.8795e+00,	-7.4136e-01,	9.7232e+00,	-1.5642e-02,	6.1286e-03,	9.3389e-02,	0.0000e+00,	0,	1460043940336561572,	2409853525
-1.7466e+00,	-6.2867e-01,	9.7498e+00,	-1.3738e-02,	2.3427e-03,	1.1755e-01,	0.0000e+00,	0,	1460043940339083554,	2412375507
-1.5704e+00,	-4.8557e-01,	9.8070e+00,	-1.5969e-02,	-6.1720e-03,	1.3634e-01,	0.0000e+00,	0,	1460043940341561744,	2414853697
-1.3142e+00,	-4.0730e-01,	9.8689e+00,	-2.0940e-02,	-1.3579e-02,	1.5166e-01,	1.3431e-01,	1,	1460043940344072310,	2417364263
-1.0111e+00,	-4.0061e-01,	9.9726e+00,	-2.3935e-02,	-1.3666e-02,	1.6404e-01,	0.0000e+00,	0,	1460043940346583834,	2419875787
-7.8572e-01,	-4.1544e-01,	1.0109e+01,	-2.4497e-02,	-7.1447e-03,	1.6939e-01,	0.0000e+00,	0,	1460043940349069483,	2422361436
-7.0866e-01,	-4.0917e-01,	1.0199e+01,	-2.3127e-02,	-2.6409e-03,	1.6619e-01,	0.0000e+00,	0,	1460043940351563048,	2424855001
-5.8046e-01,	-4.2655e-01,	1.0225e+01,	-1.9630e-02,	-4.4047e-03,	1.5698e-01,	0.0000e+00,	0,	1460043940354092155,	2427384108
-2.7743e-01,	-4.3716e-01,	1.0266e+01,	-1.4388e-02,	-8.2748e-03,	1.4219e-01,	0.0000e+00,	0,	1460043940356583887,	2429875840
-2.4973e-02,	-3.5459e-01,	1.0335e+01,	-1.1229e-02,	-1.2062e-02,	1.2159e-01,	0.0000e+00,	0,	1460043940359063495,	2432355448
1.3348e-01,	-2.6721e-01,	1.0346e+01,	-1.2293e-02,	-1.6065e-02,	9.7340e-02,	0.0000e+00,	0,	1460043940361583893,	2434875846
3.2952e-01,	-3.2410e-01,	1.0300e+01,	-1.3638e-02,	-1.7427e-02,	7.1611e-02,	0.0000e+00,	0,	1460043940364098167,	2437390120
4.6078e-01,	-4.7423e-01,	1.0270e+01,	-1.0555e-02,	-1.5745e-02,	4.5363e-02,	0.0000e+00,	0,	1460043940366569774,	2439861727
4.0219e-01,	-5.6936e-01,	1.0272e+01,	-4.6883e-03,	-1.6169e-02,	1.8150e-02,	0.0000e+00,	0,	1460043940369078798,	2442370751
2.6688e-01,	-5.5981e-01,	1.0256e+01,	-4.3554e-04,	-2.1411e-02,	-1.0199e-02,	0.0000e+00,	0,	1460043940371587405,	2444879358
2.2332e-01,	-5.0764e-01,	1.0220e+01,	-8.4567e-04,	-2.4912e-02,	-3.8364e-02,	0.0000e+00,	0,	1460043940374077513,	2447369466
